File: sample_data/data/Spectrum value from standard/Nist2587/Spectrum 31.txt
#FORMAT      : EMSA/MAS Spectral Data File
#VERSION     : 1.0
#TITLE       : Spectrum 31
#DATE        : 21-AUG-2025
#TIME        : 15:35
#OWNER       : XGT7200
#NPOINTS     : 4096.
#NCOLUMNS    : 1.
#XUNITS      : keV
#YUNITS      : counts
#DATATYPE    : XY
#XPERCHAN    : 0.0100000
#OFFSET      : -0.400000
#SIGNALTYPE  : EDS
#CHOFFSET    : 40.0000
#LIVETIME    : 30
#REALTIME    : 39.5875
#BEAMKV      : 50.0000
#PROBECUR    : 681000.
#MAGCAM      : 100.000
#XTILTSTGE   : 0.0
#AZIMANGLE   : 0.0
#ELEVANGLE   : 45.0
#XPOSITION mm: 0.0000
#YPOSITION mm: 0.0000
#ZPOSITION mm: 0.0000
##OXINSTPT   : 4
##OXINSTSTROB: 72.04
#SPECTRUM    : Spectral Data Starts Here
-0.40000, 0.
-0.37000, 0.
-0.34000, 0.
-0.31000, 0.
-0.28000, 0.
-0.25000, 0.
-0.22000, 0.
-0.19000, 0.
-0.16000, 0.
-0.13000, 0.
-0.10000, 0.
-0.07000, 0.
-0.04000, 0.
-0.01000, 0.
0.02000, 0.
0.05000, 0.
0.08000, 0.
0.11000, 0.
0.14000, 0.
0.17000, 0.
0.20000, 0.
0.23000, 0.
0.26000, 0.
0.29000, 0.
0.32000, 0.
0.35000, 2.
0.38000, 11.
0.41000, 39.
0.44000, 36.
0.47000, 47.
0.50000, 43.
0.53000, 48.
0.56000, 54.
0.59000, 46.
0.62000, 35.
0.65000, 45.
0.68000, 42.
0.71000, 46.
0.74000, 59.
0.77000, 37.
0.80000, 46.
0.83000, 45.
0.86000, 43.
0.89000, 42.
0.92000, 40.
0.95000, 46.
0.98000, 41.
1.01000, 52.
1.04000, 56.
1.07000, 61.
1.10000, 44.
1.13000, 41.
1.16000, 32.
1.19000, 33.
1.22000, 62.
1.25000, 65.
1.28000, 61.
1.31000, 52.
1.34000, 28.
1.37000, 43.
1.40000, 95.
1.43000, 231.
1.46000, 543.
1.49000, 688.
1.52000, 611.
1.55000, 336.
1.58000, 152.
1.61000, 122.
1.64000, 424.
1.67000, 1650.
1.70000, 4419.
1.73000, 7467.
1.76000, 7722.
1.79000, 4881.
1.82000, 2047.
1.85000, 710.
1.88000, 291.
1.91000, 116.
1.94000, 66.
1.97000, 66.
2.00000, 58.
2.03000, 58.
2.06000, 52.
2.09000, 36.
2.12000, 42.
2.15000, 34.
2.18000, 31.
2.21000, 32.
2.24000, 41.
2.27000, 69.
2.30000, 93.
2.33000, 110.
2.36000, 143.
2.39000, 105.
2.42000, 85.
2.45000, 77.
2.48000, 61.
2.51000, 49.
2.54000, 40.
2.57000, 56.
2.60000, 87.
2.63000, 203.
2.66000, 309.
2.69000, 422.
2.72000, 432.
2.75000, 318.
2.78000, 208.
2.81000, 238.
2.84000, 229.
2.87000, 232.
2.90000, 170.
2.93000, 126.
2.96000, 99.
2.99000, 57.
3.02000, 47.
3.05000, 41.
3.08000, 37.
3.11000, 31.
3.14000, 32.
3.17000, 50.
3.20000, 77.
3.23000, 163.
3.26000, 346.
3.29000, 584.
3.32000, 715.
3.35000, 544.
3.38000, 359.
3.41000, 166.
3.44000, 69.
3.47000, 51.
3.50000, 73.
3.53000, 91.
3.56000, 118.
3.59000, 197.
3.62000, 300.
3.65000, 474.
3.68000, 607.
3.71000, 593.
3.74000, 425.
3.77000, 218.
3.80000, 93.
3.83000, 36.
3.86000, 29.
3.89000, 33.
3.92000, 48.
3.95000, 61.
3.98000, 97.
4.01000, 93.
4.04000, 102.
4.07000, 55.
4.10000, 60.
4.13000, 29.
4.16000, 26.
4.19000, 25.
4.22000, 31.
4.25000, 22.
4.28000, 37.
4.31000, 23.
4.34000, 26.
4.37000, 44.
4.40000, 85.
4.43000, 176.
4.46000, 318.
4.49000, 399.
4.52000, 439.
4.55000, 350.
4.58000, 217.
4.61000, 141.
4.64000, 88.
4.67000, 97.
4.70000, 74.
4.73000, 97.
4.76000, 104.
4.79000, 101.
4.82000, 88.
4.85000, 96.
4.88000, 117.
4.91000, 122.
4.94000, 139.
4.97000, 107.
5.00000, 87.
5.03000, 52.
5.06000, 61.
5.09000, 64.
5.12000, 55.
5.15000, 55.
5.18000, 67.
5.21000, 51.
5.24000, 61.
5.27000, 56.
5.30000, 67.
5.33000, 63.
5.36000, 85.
5.39000, 96.
5.42000, 90.
5.45000, 84.
5.48000, 78.
5.51000, 79.
5.54000, 60.
5.57000, 70.
5.60000, 52.
5.63000, 66.
5.66000, 50.
5.69000, 64.
5.72000, 50.
5.75000, 53.
5.78000, 88.
5.81000, 106.
5.84000, 178.
5.87000, 225.
5.90000, 252.
5.93000, 200.
5.96000, 162.
5.99000, 108.
6.02000, 95.
6.05000, 70.
6.08000, 84.
6.11000, 72.
6.14000, 91.
6.17000, 105.
6.20000, 173.
6.23000, 350.
6.26000, 927.
6.29000, 2158.
6.32000, 4431.
6.35000, 7325.
6.38000, 9794.
6.41000, 10156.
6.44000, 8380.
6.47000, 5324.
6.50000, 2770.
6.53000, 1130.
6.56000, 412.
6.59000, 193.
6.62000, 104.
6.65000, 102.
6.68000, 87.
6.71000, 91.
6.74000, 97.
6.77000, 86.
6.80000, 90.
6.83000, 107.
6.86000, 135.
6.89000, 174.
6.92000, 311.
6.95000, 527.
6.98000, 917.
7.01000, 1390.
7.04000, 1650.
7.07000, 1699.
7.10000, 1324.
7.13000, 919.
7.16000, 466.
7.19000, 264.
7.22000, 148.
7.25000, 103.
7.28000, 110.
7.31000, 71.
7.34000, 80.
7.37000, 83.
7.40000, 81.
7.43000, 98.
7.46000, 84.
7.49000, 102.
7.52000, 102.
7.55000, 71.
7.58000, 80.
7.61000, 84.
7.64000, 72.
7.67000, 88.
7.70000, 85.
7.73000, 78.
7.76000, 92.
7.79000, 89.
7.82000, 107.
7.85000, 109.
7.88000, 105.
7.91000, 138.
7.94000, 139.
7.97000, 145.
8.00000, 215.
8.03000, 212.
8.06000, 226.
8.09000, 239.
8.12000, 194.
8.15000, 155.
8.18000, 161.
8.21000, 131.
8.24000, 143.
8.27000, 127.
8.30000, 108.
8.33000, 120.
8.36000, 111.
8.39000, 138.
8.42000, 115.
8.45000, 121.
8.48000, 121.
8.51000, 138.
8.54000, 207.
8.57000, 284.
8.60000, 317.
8.63000, 345.
8.66000, 333.
8.69000, 253.
8.72000, 186.
8.75000, 171.
8.78000, 141.
8.81000, 127.
8.84000, 144.
8.87000, 160.
8.90000, 147.
8.93000, 153.
8.96000, 131.
8.99000, 139.
9.02000, 134.
9.05000, 137.
9.08000, 124.
9.11000, 163.
9.14000, 172.
9.17000, 171.
9.20000, 197.
9.23000, 176.
9.26000, 180.
9.29000, 155.
9.32000, 134.
9.35000, 157.
9.38000, 140.
9.41000, 126.
9.44000, 175.
9.47000, 138.
9.50000, 164.
9.53000, 185.
9.56000, 166.
9.59000, 176.
9.62000, 159.
9.65000, 160.
9.68000, 139.
9.71000, 128.
9.74000, 143.
9.77000, 140.
9.80000, 149.
9.83000, 159.
9.86000, 138.
9.89000, 134.
9.92000, 152.
9.95000, 144.
9.98000, 145.
10.01000, 132.
10.04000, 135.
10.07000, 135.
10.10000, 128.
10.13000, 150.
10.16000, 151.
10.19000, 147.
10.22000, 136.
10.25000, 159.
10.28000, 169.
10.31000, 188.
10.34000, 215.
10.37000, 296.
10.40000, 409.
10.43000, 596.
10.46000, 836.
10.49000, 973.
10.52000, 1226.
10.55000, 1274.
10.58000, 1106.
10.61000, 919.
10.64000, 631.
10.67000, 447.
10.70000, 290.
10.73000, 203.
10.76000, 171.
10.79000, 169.
10.82000, 158.
10.85000, 141.
10.88000, 150.
10.91000, 162.
10.94000, 162.
10.97000, 147.
11.00000, 164.
11.03000, 178.
11.06000, 154.
11.09000, 169.
11.12000, 152.
11.15000, 150.
11.18000, 178.
11.21000, 182.
11.24000, 180.
11.27000, 163.
11.30000, 173.
11.33000, 148.
11.36000, 185.
11.39000, 191.
11.42000, 174.
11.45000, 164.
11.48000, 159.
11.51000, 168.
11.54000, 138.
11.57000, 173.
11.60000, 174.
11.63000, 145.
11.66000, 156.
11.69000, 156.
11.72000, 173.
11.75000, 170.
11.78000, 166.
11.81000, 164.
11.84000, 145.
11.87000, 190.
11.90000, 169.
11.93000, 188.
11.96000, 184.
11.99000, 175.
12.02000, 169.
12.05000, 188.
12.08000, 171.
12.11000, 202.
12.14000, 163.
12.17000, 207.
12.20000, 193.
12.23000, 235.
12.26000, 211.
12.29000, 245.
12.32000, 244.
12.35000, 242.
12.38000, 226.
12.41000, 247.
12.44000, 344.
12.47000, 460.
12.50000, 631.
12.53000, 812.
12.56000, 1098.
12.59000, 1160.
12.62000, 1151.
12.65000, 1003.
12.68000, 853.
12.71000, 660.
12.74000, 477.
12.77000, 361.
12.80000, 285.
12.83000, 297.
12.86000, 262.
12.89000, 208.
12.92000, 213.
12.95000, 224.
12.98000, 214.
13.01000, 208.
13.04000, 201.
13.07000, 192.
13.10000, 181.
13.13000, 202.
13.16000, 196.
13.19000, 181.
13.22000, 177.
13.25000, 194.
13.28000, 211.
13.31000, 223.
13.34000, 237.
13.37000, 270.
13.40000, 238.
13.43000, 233.
13.46000, 203.
13.49000, 200.
13.52000, 178.
13.55000, 186.
13.58000, 181.
13.61000, 162.
13.64000, 182.
13.67000, 154.
13.70000, 168.
13.73000, 183.
13.76000, 163.
13.79000, 165.
13.82000, 173.
13.85000, 188.
13.88000, 176.
13.91000, 173.
13.94000, 170.
13.97000, 213.
14.00000, 229.
14.03000, 253.
14.06000, 259.
14.09000, 291.
14.12000, 285.
14.15000, 302.
14.18000, 250.
14.21000, 264.
14.24000, 208.
14.27000, 204.
14.30000, 193.
14.33000, 178.
14.36000, 164.
14.39000, 186.
14.42000, 180.
14.45000, 165.
14.48000, 177.
14.51000, 160.
14.54000, 181.
14.57000, 191.
14.60000, 229.
14.63000, 241.
14.66000, 265.
14.69000, 292.
14.72000, 338.
14.75000, 318.
14.78000, 308.
14.81000, 291.
14.84000, 315.
14.87000, 246.
14.90000, 221.
14.93000, 250.
14.96000, 224.
14.99000, 209.
15.02000, 177.
15.05000, 243.
15.08000, 197.
15.11000, 203.
15.14000, 205.
15.17000, 198.
15.20000, 213.
15.23000, 166.
15.26000, 195.
15.29000, 204.
15.32000, 156.
15.35000, 163.
15.38000, 152.
15.41000, 166.
15.44000, 175.
15.47000, 196.
15.50000, 184.
15.53000, 192.
15.56000, 235.
15.59000, 303.
15.62000, 330.
15.65000, 369.
15.68000, 427.
15.71000, 496.
15.74000, 514.
15.77000, 431.
15.80000, 384.
15.83000, 378.
15.86000, 282.
15.89000, 251.
15.92000, 221.
15.95000, 164.
15.98000, 163.
16.01000, 180.
16.04000, 178.
16.07000, 190.
16.10000, 162.
16.13000, 153.
16.16000, 157.
16.19000, 165.
16.22000, 148.
16.25000, 162.
16.28000, 145.
16.31000, 156.
16.34000, 159.
16.37000, 160.
16.40000, 158.
16.43000, 160.
16.46000, 145.
16.49000, 149.
16.52000, 168.
16.55000, 184.
16.58000, 188.
16.61000, 139.
16.64000, 184.
16.67000, 182.
16.70000, 169.
16.73000, 155.
16.76000, 163.
16.79000, 169.
16.82000, 161.
16.85000, 168.
16.88000, 180.
16.91000, 152.
16.94000, 175.
16.97000, 162.
17.00000, 159.
17.03000, 163.
17.06000, 168.
17.09000, 152.
17.12000, 162.
17.15000, 164.
17.18000, 169.
17.21000, 165.
17.24000, 182.
17.27000, 174.
17.30000, 156.
17.33000, 181.
17.36000, 150.
17.39000, 188.
17.42000, 166.
17.45000, 206.
17.48000, 181.
17.51000, 217.
17.54000, 205.
17.57000, 241.
17.60000, 232.
17.63000, 228.
17.66000, 231.
17.69000, 227.
17.72000, 220.
17.75000, 233.
17.78000, 186.
17.81000, 216.
17.84000, 254.
17.87000, 200.
17.90000, 224.
17.93000, 244.
17.96000, 241.
17.99000, 255.
18.02000, 230.
18.05000, 232.
18.08000, 247.
18.11000, 281.
18.14000, 275.
18.17000, 305.
18.20000, 353.
18.23000, 335.
18.26000, 315.
18.29000, 359.
18.32000, 362.
18.35000, 396.
18.38000, 406.
18.41000, 472.
18.44000, 544.
18.47000, 575.
18.50000, 601.
18.53000, 640.
18.56000, 686.
18.59000, 719.
18.62000, 831.
18.65000, 875.
18.68000, 901.
18.71000, 966.
18.74000, 997.
18.77000, 1008.
18.80000, 1004.
18.83000, 980.
18.86000, 931.
18.89000, 938.
18.92000, 887.
18.95000, 817.
18.98000, 750.
19.01000, 787.
19.04000, 735.
19.07000, 690.
19.10000, 617.
19.13000, 559.
19.16000, 563.
19.19000, 496.
19.22000, 390.
19.25000, 403.
19.28000, 387.
19.31000, 339.
19.34000, 330.
19.37000, 320.
19.40000, 317.
19.43000, 267.
19.46000, 270.
19.49000, 265.
19.52000, 246.
19.55000, 228.
19.58000, 237.
19.61000, 226.
19.64000, 197.
19.67000, 185.
19.70000, 200.
19.73000, 177.
19.76000, 185.
19.79000, 221.
19.82000, 186.
19.85000, 207.
19.88000, 231.
19.91000, 248.
19.94000, 283.
19.97000, 325.
20.00000, 359.
20.03000, 489.
20.06000, 536.
20.09000, 536.
20.12000, 541.
20.15000, 606.
20.18000, 579.
20.21000, 581.
20.24000, 485.
20.27000, 447.
20.30000, 330.
20.33000, 308.
20.36000, 234.
20.39000, 211.
20.42000, 182.
20.45000, 176.
20.48000, 163.
20.51000, 172.
20.54000, 188.
20.57000, 182.
20.60000, 175.
20.63000, 213.
20.66000, 185.
20.69000, 205.
20.72000, 218.
20.75000, 221.
20.78000, 231.
20.81000, 230.
20.84000, 242.
20.87000, 251.
20.90000, 248.
20.93000, 255.
20.96000, 253.
20.99000, 261.
21.02000, 258.
21.05000, 264.
21.08000, 257.
21.11000, 261.
21.14000, 236.
21.17000, 266.
21.20000, 232.
21.23000, 219.
21.26000, 221.
21.29000, 216.
21.32000, 224.
21.35000, 190.
21.38000, 197.
21.41000, 158.
21.44000, 183.
21.47000, 139.
21.50000, 157.
21.53000, 152.
21.56000, 169.
21.59000, 126.
21.62000, 150.
21.65000, 139.
21.68000, 131.
21.71000, 146.
21.74000, 129.
21.77000, 108.
21.80000, 105.
21.83000, 140.
21.86000, 105.
21.89000, 99.
21.92000, 120.
21.95000, 121.
21.98000, 103.
22.01000, 114.
22.04000, 113.
22.07000, 105.
22.10000, 89.
22.13000, 102.
22.16000, 87.
22.19000, 102.
22.22000, 106.
22.25000, 86.
22.28000, 96.
22.31000, 89.
22.34000, 112.
22.37000, 76.
22.40000, 83.
22.43000, 86.
22.46000, 70.
22.49000, 94.
22.52000, 100.
22.55000, 119.
22.58000, 111.
22.61000, 145.
22.64000, 124.
22.67000, 139.
22.70000, 145.
22.73000, 134.
22.76000, 142.
22.79000, 114.
22.82000, 115.
22.85000, 119.
22.88000, 92.
22.91000, 94.
22.94000, 86.
22.97000, 88.
23.00000, 94.
23.03000, 95.
23.06000, 96.
23.09000, 83.
23.12000, 83.
23.15000, 82.
23.18000, 91.
23.21000, 85.
23.24000, 81.
23.27000, 80.
23.30000, 76.
23.33000, 86.
23.36000, 70.
23.39000, 71.
23.42000, 93.
23.45000, 69.
23.48000, 66.
23.51000, 81.
23.54000, 66.
23.57000, 73.
23.60000, 68.
23.63000, 94.
23.66000, 73.
23.69000, 92.
23.72000, 76.
23.75000, 59.
23.78000, 64.
23.81000, 70.
23.84000, 74.
23.87000, 59.
23.90000, 69.
23.93000, 71.
23.96000, 55.
23.99000, 73.
24.02000, 63.
24.05000, 80.
24.08000, 71.
24.11000, 74.
24.14000, 63.
24.17000, 71.
24.20000, 80.
24.23000, 65.
24.26000, 67.
24.29000, 68.
24.32000, 71.
24.35000, 81.
24.38000, 66.
24.41000, 72.
24.44000, 63.
24.47000, 70.
24.50000, 58.
24.53000, 62.
24.56000, 68.
24.59000, 81.
24.62000, 59.
24.65000, 72.
24.68000, 50.
24.71000, 66.
24.74000, 63.
24.77000, 66.
24.80000, 70.
24.83000, 61.
24.86000, 66.
24.89000, 83.
24.92000, 78.
24.95000, 58.
24.98000, 86.
25.01000, 81.
25.04000, 78.
25.07000, 68.
25.10000, 78.
25.13000, 74.
25.16000, 67.
25.19000, 79.
25.22000, 66.
25.25000, 89.
25.28000, 75.
25.31000, 68.
25.34000, 60.
25.37000, 69.
25.40000, 74.
25.43000, 68.
25.46000, 63.
25.49000, 80.
25.52000, 62.
25.55000, 51.
25.58000, 57.
25.61000, 56.
25.64000, 68.
25.67000, 64.
25.70000, 58.
25.73000, 64.
25.76000, 53.
25.79000, 49.
25.82000, 55.
25.85000, 54.
25.88000, 52.
25.91000, 73.
25.94000, 51.
25.97000, 50.
26.00000, 53.
26.03000, 66.
26.06000, 64.
26.09000, 63.
26.12000, 54.
26.15000, 66.
26.18000, 54.
26.21000, 47.
26.24000, 57.
26.27000, 64.
26.30000, 55.
26.33000, 41.
26.36000, 73.
26.39000, 57.
26.42000, 70.
26.45000, 72.
26.48000, 55.
26.51000, 55.
26.54000, 91.
26.57000, 55.
26.60000, 54.
26.63000, 47.
26.66000, 47.
26.69000, 60.
26.72000, 54.
26.75000, 54.
26.78000, 52.
26.81000, 51.
26.84000, 60.
26.87000, 60.
26.90000, 53.
26.93000, 50.
26.96000, 53.
26.99000, 52.
27.02000, 52.
27.05000, 70.
27.08000, 62.
27.11000, 51.
27.14000, 55.
27.17000, 47.
27.20000, 48.
27.23000, 50.
27.26000, 50.
27.29000, 38.
27.32000, 52.
27.35000, 41.
27.38000, 57.
27.41000, 59.
27.44000, 58.
27.47000, 59.
27.50000, 45.
27.53000, 43.
27.56000, 51.
27.59000, 49.
27.62000, 53.
27.65000, 36.
27.68000, 49.
27.71000, 60.
27.74000, 49.
27.77000, 50.
27.80000, 63.
27.83000, 44.
27.86000, 45.
27.89000, 42.
27.92000, 50.
27.95000, 41.
27.98000, 58.
28.01000, 42.
28.04000, 49.
28.07000, 48.
28.10000, 37.
28.13000, 40.
28.16000, 58.
28.19000, 59.
28.22000, 48.
28.25000, 38.
28.28000, 50.
28.31000, 41.
28.34000, 43.
28.37000, 36.
28.40000, 44.
28.43000, 41.
28.46000, 38.
28.49000, 44.
28.52000, 62.
28.55000, 42.
28.58000, 62.
28.61000, 51.
28.64000, 33.
28.67000, 53.
28.70000, 40.
28.73000, 46.
28.76000, 53.
28.79000, 53.
28.82000, 43.
28.85000, 45.
28.88000, 49.
28.91000, 39.
28.94000, 38.
28.97000, 43.
29.00000, 41.
29.03000, 41.
29.06000, 37.
29.09000, 36.
29.12000, 49.
29.15000, 49.
29.18000, 48.
29.21000, 44.
29.24000, 32.
29.27000, 33.
29.30000, 32.
29.33000, 38.
29.36000, 31.
29.39000, 50.
29.42000, 37.
29.45000, 45.
29.48000, 33.
29.51000, 41.
29.54000, 45.
29.57000, 36.
29.60000, 44.
29.63000, 37.
29.66000, 47.
29.69000, 42.
29.72000, 34.
29.75000, 37.
29.78000, 40.
29.81000, 40.
29.84000, 37.
29.87000, 35.
29.90000, 40.
29.93000, 31.
29.96000, 34.
29.99000, 52.
30.02000, 29.
30.05000, 37.
30.08000, 33.
30.11000, 32.
30.14000, 37.
30.17000, 33.
30.20000, 35.
30.23000, 47.
30.26000, 32.
30.29000, 35.
30.32000, 36.
30.35000, 33.
30.38000, 40.
30.41000, 43.
30.44000, 35.
30.47000, 41.
30.50000, 48.
30.53000, 39.
30.56000, 29.
30.59000, 44.
30.62000, 38.
30.65000, 30.
30.68000, 42.
30.71000, 33.
30.74000, 37.
30.77000, 41.
30.80000, 31.
30.83000, 29.
30.86000, 26.
30.89000, 36.
30.92000, 31.
30.95000, 39.
30.98000, 39.
31.01000, 27.
31.04000, 35.
31.07000, 28.
31.10000, 30.
31.13000, 44.
31.16000, 35.
31.19000, 25.
31.22000, 33.
31.25000, 28.
31.28000, 32.
31.31000, 33.
31.34000, 32.
31.37000, 33.
31.40000, 32.
31.43000, 27.
31.46000, 28.
31.49000, 35.
31.52000, 37.
31.55000, 37.
31.58000, 36.
31.61000, 47.
31.64000, 22.
31.67000, 38.
31.70000, 40.
31.73000, 34.
31.76000, 37.
31.79000, 29.
31.82000, 30.
31.85000, 37.
31.88000, 23.
31.91000, 20.
31.94000, 41.
31.97000, 33.
32.00000, 43.
32.03000, 26.
32.06000, 33.
32.09000, 38.
32.12000, 37.
32.15000, 24.
32.18000, 29.
32.21000, 27.
32.24000, 30.
32.27000, 41.
32.30000, 30.
32.33000, 23.
32.36000, 25.
32.39000, 35.
32.42000, 32.
32.45000, 24.
32.48000, 32.
32.51000, 33.
32.54000, 30.
32.57000, 16.
32.60000, 28.
32.63000, 26.
32.66000, 33.
32.69000, 40.
32.72000, 18.
32.75000, 19.
32.78000, 28.
32.81000, 36.
32.84000, 23.
32.87000, 27.
32.90000, 24.
32.93000, 26.
32.96000, 28.
32.99000, 26.
33.02000, 23.
33.05000, 19.
33.08000, 37.
33.11000, 30.
33.14000, 19.
33.17000, 35.
33.20000, 20.
33.23000, 24.
33.26000, 18.
33.29000, 29.
33.32000, 20.
33.35000, 17.
33.38000, 34.
33.41000, 30.
33.44000, 19.
33.47000, 23.
33.50000, 22.
33.53000, 17.
33.56000, 18.
33.59000, 30.
33.62000, 15.
33.65000, 21.
33.68000, 31.
33.71000, 20.
33.74000, 20.
33.77000, 23.
33.80000, 28.
33.83000, 22.
33.86000, 21.
33.89000, 15.
33.92000, 29.
33.95000, 26.
33.98000, 15.
34.01000, 23.
34.04000, 33.
34.07000, 21.
34.10000, 26.
34.13000, 15.
34.16000, 17.
34.19000, 20.
34.22000, 18.
34.25000, 22.
34.28000, 24.
34.31000, 19.
34.34000, 20.
34.37000, 27.
34.40000, 12.
34.43000, 25.
34.46000, 21.
34.49000, 20.
34.52000, 21.
34.55000, 22.
34.58000, 22.
34.61000, 19.
34.64000, 23.
34.67000, 23.
34.70000, 17.
34.73000, 22.
34.76000, 15.
34.79000, 22.
34.82000, 20.
34.85000, 22.
34.88000, 20.
34.91000, 24.
34.94000, 18.
34.97000, 19.
35.00000, 21.
35.03000, 7.
35.06000, 24.
35.09000, 21.
35.12000, 19.
35.15000, 26.
35.18000, 22.
35.21000, 19.
35.24000, 19.
35.27000, 9.
35.30000, 16.
35.33000, 18.
35.36000, 16.
35.39000, 14.
35.42000, 15.
35.45000, 23.
35.48000, 21.
35.51000, 15.
35.54000, 17.
35.57000, 16.
35.60000, 12.
35.63000, 17.
35.66000, 11.
35.69000, 15.
35.72000, 16.
35.75000, 15.
35.78000, 15.
35.81000, 9.
35.84000, 17.
35.87000, 20.
35.90000, 16.
35.93000, 18.
35.96000, 20.
35.99000, 24.
36.02000, 17.
36.05000, 13.
36.08000, 16.
36.11000, 17.
36.14000, 13.
36.17000, 17.
36.20000, 7.
36.23000, 18.
36.26000, 12.
36.29000, 30.
36.32000, 21.
36.35000, 10.
36.38000, 11.
36.41000, 15.
36.44000, 13.
36.47000, 16.
36.50000, 16.
36.53000, 11.
36.56000, 16.
36.59000, 12.
36.62000, 13.
36.65000, 14.
36.68000, 8.
36.71000, 11.
36.74000, 14.
36.77000, 12.
36.80000, 15.
36.83000, 9.
36.86000, 9.
36.89000, 10.
36.92000, 12.
36.95000, 14.
36.98000, 9.
37.01000, 9.
37.04000, 19.
37.07000, 12.
37.10000, 15.
37.13000, 8.
37.16000, 10.
37.19000, 9.
37.22000, 12.
37.25000, 12.
37.28000, 21.
37.31000, 14.
37.34000, 12.
37.37000, 12.
37.40000, 10.
37.43000, 14.
37.46000, 9.
37.49000, 15.
37.52000, 14.
37.55000, 9.
37.58000, 13.
37.61000, 10.
37.64000, 9.
37.67000, 18.
37.70000, 9.
37.73000, 8.
37.76000, 8.
37.79000, 9.
37.82000, 10.
37.85000, 5.
37.88000, 11.
37.91000, 7.
37.94000, 8.
37.97000, 13.
38.00000, 14.
38.03000, 6.
38.06000, 9.
38.09000, 8.
38.12000, 7.
38.15000, 10.
38.18000, 9.
38.21000, 11.
38.24000, 7.
38.27000, 3.
38.30000, 10.
38.33000, 11.
38.36000, 3.
38.39000, 8.
38.42000, 8.
38.45000, 11.
38.48000, 6.
38.51000, 7.
38.54000, 8.
38.57000, 5.
38.60000, 8.
38.63000, 3.
38.66000, 7.
38.69000, 8.
38.72000, 6.
38.75000, 5.
38.78000, 12.
38.81000, 6.
38.84000, 12.
38.87000, 8.
38.90000, 9.
38.93000, 4.
38.96000, 5.
38.99000, 8.
39.02000, 5.
39.05000, 6.
39.08000, 5.
39.11000, 9.
39.14000, 5.
39.17000, 7.
39.20000, 7.
39.23000, 10.
39.26000, 5.
39.29000, 10.
39.32000, 3.
39.35000, 9.
39.38000, 8.
39.41000, 6.
39.44000, 7.
39.47000, 11.
39.50000, 9.
39.53000, 7.
39.56000, 7.
39.59000, 2.
39.62000, 4.
39.65000, 7.
39.68000, 8.
39.71000, 2.
39.74000, 3.
39.77000, 4.
39.80000, 3.
39.83000, 7.
39.86000, 4.
39.89000, 6.
39.92000, 10.
39.95000, 0.
39.98000, 11.
40.01000, 11.
40.04000, 6.
40.07000, 8.
40.10000, 4.
40.13000, 6.
40.16000, 4.
40.19000, 5.
40.22000, 6.
40.25000, 6.
40.28000, 4.
40.31000, 4.
40.34000, 5.
40.37000, 6.
40.40000, 5.
40.43000, 3.
40.46000, 0.
40.49000, 5.
40.52000, 1.
40.55000, 0.
#ENDOFDATA   :