File: sample_data/data/Spectrum value from standard/Nist2587/Spectrum 33, NIST 2587.txt
#FORMAT      : EMSA/MAS Spectral Data File
#VERSION     : 1.0
#TITLE       : Spectrum 33
#DATE        : 21-AUG-2025
#TIME        : 15:37
#OWNER       : XGT7200
#NPOINTS     : 4096.
#NCOLUMNS    : 1.
#XUNITS      : keV
#YUNITS      : counts
#DATATYPE    : XY
#XPERCHAN    : 0.0100000
#OFFSET      : -0.400000
#SIGNALTYPE  : EDS
#CHOFFSET    : 40.0000
#LIVETIME    : 30
#REALTIME    : 39.4766
#BEAMKV      : 50.0000
#PROBECUR    : 683000.
#MAGCAM      : 100.000
#XTILTSTGE   : 0.0
#AZIMANGLE   : 0.0
#ELEVANGLE   : 45.0
#XPOSITION mm: 0.0000
#YPOSITION mm: 0.0000
#ZPOSITION mm: 0.0000
##OXINSTPT   : 4
##OXINSTSTROB: 71.83
#SPECTRUM    : Spectral Data Starts Here
-0.40000, 0.
-0.37000, 0.
-0.34000, 0.
-0.31000, 0.
-0.28000, 0.
-0.25000, 0.
-0.22000, 0.
-0.19000, 0.
-0.16000, 0.
-0.13000, 0.
-0.10000, 0.
-0.07000, 0.
-0.04000, 0.
-0.01000, 0.
0.02000, 0.
0.05000, 0.
0.08000, 0.
0.11000, 0.
0.14000, 0.
0.17000, 0.
0.20000, 0.
0.23000, 0.
0.26000, 0.
0.29000, 0.
0.32000, 0.
0.35000, 2.
0.38000, 10.
0.41000, 27.
0.44000, 33.
0.47000, 41.
0.50000, 59.
0.53000, 45.
0.56000, 57.
0.59000, 44.
0.62000, 45.
0.65000, 45.
0.68000, 42.
0.71000, 44.
0.74000, 42.
0.77000, 49.
0.80000, 47.
0.83000, 42.
0.86000, 41.
0.89000, 33.
0.92000, 41.
0.95000, 46.
0.98000, 47.
1.01000, 50.
1.04000, 66.
1.07000, 38.
1.10000, 38.
1.13000, 26.
1.16000, 39.
1.19000, 59.
1.22000, 62.
1.25000, 65.
1.28000, 47.
1.31000, 57.
1.34000, 37.
1.37000, 41.
1.40000, 81.
1.43000, 260.
1.46000, 486.
1.49000, 725.
1.52000, 582.
1.55000, 317.
1.58000, 148.
1.61000, 147.
1.64000, 425.
1.67000, 1544.
1.70000, 4329.
1.73000, 7433.
1.76000, 7617.
1.79000, 4632.
1.82000, 1952.
1.85000, 703.
1.88000, 283.
1.91000, 114.
1.94000, 62.
1.97000, 54.
2.00000, 60.
2.03000, 64.
2.06000, 51.
2.09000, 40.
2.12000, 39.
2.15000, 38.
2.18000, 29.
2.21000, 26.
2.24000, 41.
2.27000, 82.
2.30000, 123.
2.33000, 142.
2.36000, 133.
2.39000, 139.
2.42000, 108.
2.45000, 105.
2.48000, 70.
2.51000, 59.
2.54000, 46.
2.57000, 58.
2.60000, 104.
2.63000, 199.
2.66000, 329.
2.69000, 401.
2.72000, 418.
2.75000, 285.
2.78000, 208.
2.81000, 222.
2.84000, 202.
2.87000, 203.
2.90000, 142.
2.93000, 101.
2.96000, 92.
2.99000, 65.
3.02000, 50.
3.05000, 34.
3.08000, 34.
3.11000, 39.
3.14000, 40.
3.17000, 35.
3.20000, 65.
3.23000, 165.
3.26000, 331.
3.29000, 598.
3.32000, 686.
3.35000, 541.
3.38000, 300.
3.41000, 149.
3.44000, 60.
3.47000, 64.
3.50000, 56.
3.53000, 80.
3.56000, 129.
3.59000, 171.
3.62000, 298.
3.65000, 455.
3.68000, 620.
3.71000, 600.
3.74000, 372.
3.77000, 218.
3.80000, 93.
3.83000, 50.
3.86000, 20.
3.89000, 28.
3.92000, 53.
3.95000, 61.
3.98000, 96.
4.01000, 100.
4.04000, 88.
4.07000, 88.
4.10000, 42.
4.13000, 30.
4.16000, 37.
4.19000, 27.
4.22000, 26.
4.25000, 29.
4.28000, 19.
4.31000, 31.
4.34000, 44.
4.37000, 65.
4.40000, 112.
4.43000, 198.
4.46000, 385.
4.49000, 502.
4.52000, 488.
4.55000, 451.
4.58000, 255.
4.61000, 153.
4.64000, 98.
4.67000, 84.
4.70000, 67.
4.73000, 75.
4.76000, 80.
4.79000, 78.
4.82000, 94.
4.85000, 123.
4.88000, 130.
4.91000, 140.
4.94000, 150.
4.97000, 120.
5.00000, 84.
5.03000, 69.
5.06000, 46.
5.09000, 40.
5.12000, 50.
5.15000, 48.
5.18000, 62.
5.21000, 60.
5.24000, 45.
5.27000, 62.
5.30000, 61.
5.33000, 58.
5.36000, 85.
5.39000, 84.
5.42000, 70.
5.45000, 68.
5.48000, 84.
5.51000, 72.
5.54000, 80.
5.57000, 76.
5.60000, 54.
5.63000, 59.
5.66000, 63.
5.69000, 49.
5.72000, 52.
5.75000, 54.
5.78000, 74.
5.81000, 128.
5.84000, 192.
5.87000, 224.
5.90000, 235.
5.93000, 210.
5.96000, 178.
5.99000, 103.
6.02000, 79.
6.05000, 85.
6.08000, 81.
6.11000, 91.
6.14000, 83.
6.17000, 102.
6.20000, 166.
6.23000, 349.
6.26000, 838.
6.29000, 2037.
6.32000, 4235.
6.35000, 7075.
6.38000, 9526.
6.41000, 9729.
6.44000, 7996.
6.47000, 5158.
6.50000, 2749.
6.53000, 1139.
6.56000, 398.
6.59000, 162.
6.62000, 112.
6.65000, 106.
6.68000, 94.
6.71000, 89.
6.74000, 95.
6.77000, 99.
6.80000, 119.
6.83000, 116.
6.86000, 122.
6.89000, 185.
6.92000, 294.
6.95000, 550.
6.98000, 929.
7.01000, 1321.
7.04000, 1590.
7.07000, 1610.
7.10000, 1219.
7.13000, 857.
7.16000, 492.
7.19000, 263.
7.22000, 148.
7.25000, 111.
7.28000, 68.
7.31000, 68.
7.34000, 76.
7.37000, 83.
7.40000, 90.
7.43000, 95.
7.46000, 78.
7.49000, 78.
7.52000, 84.
7.55000, 75.
7.58000, 86.
7.61000, 94.
7.64000, 83.
7.67000, 81.
7.70000, 78.
7.73000, 89.
7.76000, 78.
7.79000, 87.
7.82000, 87.
7.85000, 106.
7.88000, 101.
7.91000, 137.
7.94000, 123.
7.97000, 195.
8.00000, 181.
8.03000, 210.
8.06000, 185.
8.09000, 214.
8.12000, 208.
8.15000, 186.
8.18000, 168.
8.21000, 125.
8.24000, 124.
8.27000, 125.
8.30000, 88.
8.33000, 97.
8.36000, 121.
8.39000, 107.
8.42000, 121.
8.45000, 110.
8.48000, 152.
8.51000, 167.
8.54000, 219.
8.57000, 280.
8.60000, 308.
8.63000, 324.
8.66000, 325.
8.69000, 298.
8.72000, 219.
8.75000, 169.
8.78000, 148.
8.81000, 136.
8.84000, 152.
8.87000, 118.
8.90000, 157.
8.93000, 147.
8.96000, 118.
8.99000, 127.
9.02000, 110.
9.05000, 127.
9.08000, 145.
9.11000, 158.
9.14000, 179.
9.17000, 203.
9.20000, 200.
9.23000, 178.
9.26000, 168.
9.29000, 147.
9.32000, 156.
9.35000, 164.
9.38000, 159.
9.41000, 154.
9.44000, 167.
9.47000, 152.
9.50000, 143.
9.53000, 190.
9.56000, 181.
9.59000, 177.
9.62000, 167.
9.65000, 168.
9.68000, 159.
9.71000, 162.
9.74000, 151.
9.77000, 132.
9.80000, 136.
9.83000, 140.
9.86000, 152.
9.89000, 166.
9.92000, 167.
9.95000, 131.
9.98000, 144.
10.01000, 142.
10.04000, 145.
10.07000, 127.
10.10000, 146.
10.13000, 142.
10.16000, 159.
10.19000, 138.
10.22000, 157.
10.25000, 150.
10.28000, 171.
10.31000, 190.
10.34000, 226.
10.37000, 326.
10.40000, 410.
10.43000, 611.
10.46000, 869.
10.49000, 1075.
10.52000, 1289.
10.55000, 1362.
10.58000, 1162.
10.61000, 881.
10.64000, 705.
10.67000, 434.
10.70000, 316.
10.73000, 200.
10.76000, 154.
10.79000, 157.
10.82000, 156.
10.85000, 145.
10.88000, 153.
10.91000, 178.
10.94000, 167.
10.97000, 158.
11.00000, 155.
11.03000, 157.
11.06000, 163.
11.09000, 162.
11.12000, 176.
11.15000, 173.
11.18000, 168.
11.21000, 162.
11.24000, 181.
11.27000, 195.
11.30000, 191.
11.33000, 180.
11.36000, 187.
11.39000, 171.
11.42000, 187.
11.45000, 160.
11.48000, 181.
11.51000, 157.
11.54000, 138.
11.57000, 155.
11.60000, 177.
11.63000, 168.
11.66000, 201.
11.69000, 173.
11.72000, 150.
11.75000, 153.
11.78000, 156.
11.81000, 163.
11.84000, 168.
11.87000, 161.
11.90000, 180.
11.93000, 153.
11.96000, 154.
11.99000, 180.
12.02000, 189.
12.05000, 147.
12.08000, 168.
12.11000, 206.
12.14000, 190.
12.17000, 209.
12.20000, 212.
12.23000, 224.
12.26000, 251.
12.29000, 230.
12.32000, 240.
12.35000, 239.
12.38000, 244.
12.41000, 222.
12.44000, 359.
12.47000, 427.
12.50000, 635.
12.53000, 865.
12.56000, 1120.
12.59000, 1249.
12.62000, 1204.
12.65000, 1135.
12.68000, 953.
12.71000, 668.
12.74000, 515.
12.77000, 390.
12.80000, 347.
12.83000, 285.
12.86000, 235.
12.89000, 249.
12.92000, 262.
12.95000, 210.
12.98000, 233.
13.01000, 221.
13.04000, 215.
13.07000, 182.
13.10000, 208.
13.13000, 186.
13.16000, 186.
13.19000, 176.
13.22000, 198.
13.25000, 212.
13.28000, 245.
13.31000, 253.
13.34000, 269.
13.37000, 254.
13.40000, 255.
13.43000, 220.
13.46000, 230.
13.49000, 215.
13.52000, 187.
13.55000, 169.
13.58000, 193.
13.61000, 189.
13.64000, 136.
13.67000, 148.
13.70000, 180.
13.73000, 179.
13.76000, 177.
13.79000, 181.
13.82000, 184.
13.85000, 171.
13.88000, 177.
13.91000, 164.
13.94000, 172.
13.97000, 200.
14.00000, 185.
14.03000, 212.
14.06000, 274.
14.09000, 311.
14.12000, 297.
14.15000, 282.
14.18000, 274.
14.21000, 258.
14.24000, 229.
14.27000, 199.
14.30000, 186.
14.33000, 180.
14.36000, 168.
14.39000, 154.
14.42000, 168.
14.45000, 174.
14.48000, 172.
14.51000, 172.
14.54000, 182.
14.57000, 175.
14.60000, 207.
14.63000, 260.
14.66000, 268.
14.69000, 273.
14.72000, 330.
14.75000, 335.
14.78000, 313.
14.81000, 307.
14.84000, 266.
14.87000, 250.
14.90000, 246.
14.93000, 195.
14.96000, 203.
14.99000, 212.
15.02000, 201.
15.05000, 206.
15.08000, 205.
15.11000, 219.
15.14000, 209.
15.17000, 198.
15.20000, 197.
15.23000, 188.
15.26000, 191.
15.29000, 168.
15.32000, 165.
15.35000, 187.
15.38000, 147.
15.41000, 174.
15.44000, 148.
15.47000, 176.
15.50000, 178.
15.53000, 198.
15.56000, 234.
15.59000, 231.
15.62000, 274.
15.65000, 322.
15.68000, 400.
15.71000, 384.
15.74000, 416.
15.77000, 387.
15.80000, 369.
15.83000, 300.
15.86000, 259.
15.89000, 232.
15.92000, 199.
15.95000, 194.
15.98000, 158.
16.01000, 155.
16.04000, 157.
16.07000, 160.
16.10000, 166.
16.13000, 169.
16.16000, 146.
16.19000, 160.
16.22000, 153.
16.25000, 173.
16.28000, 165.
16.31000, 169.
16.34000, 161.
16.37000, 171.
16.40000, 154.
16.43000, 140.
16.46000, 171.
16.49000, 162.
16.52000, 177.
16.55000, 165.
16.58000, 168.
16.61000, 159.
16.64000, 179.
16.67000, 177.
16.70000, 155.
16.73000, 172.
16.76000, 151.
16.79000, 156.
16.82000, 155.
16.85000, 156.
16.88000, 159.
16.91000, 188.
16.94000, 157.
16.97000, 144.
17.00000, 172.
17.03000, 152.
17.06000, 161.
17.09000, 150.
17.12000, 146.
17.15000, 170.
17.18000, 165.
17.21000, 188.
17.24000, 157.
17.27000, 155.
17.30000, 172.
17.33000, 159.
17.36000, 180.
17.39000, 194.
17.42000, 174.
17.45000, 214.
17.48000, 177.
17.51000, 213.
17.54000, 219.
17.57000, 212.
17.60000, 241.
17.63000, 228.
17.66000, 227.
17.69000, 218.
17.72000, 223.
17.75000, 226.
17.78000, 204.
17.81000, 210.
17.84000, 235.
17.87000, 217.
17.90000, 229.
17.93000, 215.
17.96000, 234.
17.99000, 276.
18.02000, 239.
18.05000, 248.
18.08000, 275.
18.11000, 287.
18.14000, 263.
18.17000, 295.
18.20000, 267.
18.23000, 317.
18.26000, 337.
18.29000, 343.
18.32000, 368.
18.35000, 391.
18.38000, 411.
18.41000, 458.
18.44000, 523.
18.47000, 548.
18.50000, 604.
18.53000, 641.
18.56000, 677.
18.59000, 775.
18.62000, 834.
18.65000, 873.
18.68000, 926.
18.71000, 960.
18.74000, 952.
18.77000, 1017.
18.80000, 953.
18.83000, 939.
18.86000, 937.
18.89000, 900.
18.92000, 918.
18.95000, 817.
18.98000, 795.
19.01000, 794.
19.04000, 681.
19.07000, 651.
19.10000, 620.
19.13000, 531.
19.16000, 513.
19.19000, 438.
19.22000, 419.
19.25000, 385.
19.28000, 360.
19.31000, 320.
19.34000, 338.
19.37000, 302.
19.40000, 256.
19.43000, 271.
19.46000, 271.
19.49000, 240.
19.52000, 243.
19.55000, 241.
19.58000, 224.
19.61000, 210.
19.64000, 217.
19.67000, 187.
19.70000, 217.
19.73000, 195.
19.76000, 199.
19.79000, 165.
19.82000, 203.
19.85000, 214.
19.88000, 236.
19.91000, 241.
19.94000, 295.
19.97000, 307.
20.00000, 374.
20.03000, 427.
20.06000, 497.
20.09000, 517.
20.12000, 601.
20.15000, 593.
20.18000, 537.
20.21000, 552.
20.24000, 462.
20.27000, 424.
20.30000, 336.
20.33000, 281.
20.36000, 214.
20.39000, 202.
20.42000, 189.
20.45000, 161.
20.48000, 162.
20.51000, 168.
20.54000, 176.
20.57000, 179.
20.60000, 188.
20.63000, 157.
20.66000, 198.
20.69000, 231.
20.72000, 213.
20.75000, 208.
20.78000, 248.
20.81000, 234.
20.84000, 254.
20.87000, 267.
20.90000, 262.
20.93000, 273.
20.96000, 263.
20.99000, 292.
21.02000, 269.
21.05000, 256.
21.08000, 276.
21.11000, 211.
21.14000, 231.
21.17000, 234.
21.20000, 244.
21.23000, 232.
21.26000, 204.
21.29000, 218.
21.32000, 198.
21.35000, 196.
21.38000, 189.
21.41000, 174.
21.44000, 190.
21.47000, 152.
21.50000, 172.
21.53000, 139.
21.56000, 149.
21.59000, 154.
21.62000, 113.
21.65000, 123.
21.68000, 109.
21.71000, 144.
21.74000, 116.
21.77000, 136.
21.80000, 114.
21.83000, 118.
21.86000, 106.
21.89000, 104.
21.92000, 99.
21.95000, 109.
21.98000, 85.
22.01000, 97.
22.04000, 101.
22.07000, 111.
22.10000, 89.
22.13000, 90.
22.16000, 97.
22.19000, 107.
22.22000, 80.
22.25000, 98.
22.28000, 102.
22.31000, 80.
22.34000, 97.
22.37000, 87.
22.40000, 68.
22.43000, 98.
22.46000, 81.
22.49000, 100.
22.52000, 129.
22.55000, 115.
22.58000, 121.
22.61000, 135.
22.64000, 144.
22.67000, 145.
22.70000, 141.
22.73000, 153.
22.76000, 118.
22.79000, 125.
22.82000, 123.
22.85000, 108.
22.88000, 86.
22.91000, 98.
22.94000, 90.
22.97000, 88.
23.00000, 87.
23.03000, 89.
23.06000, 96.
23.09000, 88.
23.12000, 83.
23.15000, 77.
23.18000, 82.
23.21000, 89.
23.24000, 89.
23.27000, 74.
23.30000, 70.
23.33000, 71.
23.36000, 82.
23.39000, 77.
23.42000, 83.
23.45000, 69.
23.48000, 77.
23.51000, 67.
23.54000, 64.
23.57000, 60.
23.60000, 67.
23.63000, 70.
23.66000, 74.
23.69000, 79.
23.72000, 58.
23.75000, 66.
23.78000, 64.
23.81000, 57.
23.84000, 69.
23.87000, 68.
23.90000, 86.
23.93000, 77.
23.96000, 76.
23.99000, 65.
24.02000, 60.
24.05000, 62.
24.08000, 67.
24.11000, 56.
24.14000, 58.
24.17000, 58.
24.20000, 75.
24.23000, 67.
24.26000, 71.
24.29000, 78.
24.32000, 76.
24.35000, 84.
24.38000, 69.
24.41000, 69.
24.44000, 62.
24.47000, 63.
24.50000, 78.
24.53000, 53.
24.56000, 57.
24.59000, 56.
24.62000, 65.
24.65000, 76.
24.68000, 54.
24.71000, 67.
24.74000, 76.
24.77000, 57.
24.80000, 76.
24.83000, 80.
24.86000, 57.
24.89000, 63.
24.92000, 66.
24.95000, 70.
24.98000, 65.
25.01000, 60.
25.04000, 82.
25.07000, 84.
25.10000, 66.
25.13000, 70.
25.16000, 67.
25.19000, 78.
25.22000, 77.
25.25000, 62.
25.28000, 88.
25.31000, 71.
25.34000, 80.
25.37000, 64.
25.40000, 60.
25.43000, 74.
25.46000, 58.
25.49000, 49.
25.52000, 59.
25.55000, 58.
25.58000, 65.
25.61000, 64.
25.64000, 62.
25.67000, 68.
25.70000, 67.
25.73000, 63.
25.76000, 64.
25.79000, 52.
25.82000, 67.
25.85000, 56.
25.88000, 54.
25.91000, 55.
25.94000, 55.
25.97000, 50.
26.00000, 74.
26.03000, 60.
26.06000, 71.
26.09000, 68.
26.12000, 49.
26.15000, 85.
26.18000, 62.
26.21000, 58.
26.24000, 51.
26.27000, 57.
26.30000, 80.
26.33000, 53.
26.36000, 52.
26.39000, 48.
26.42000, 59.
26.45000, 53.
26.48000, 49.
26.51000, 55.
26.54000, 51.
26.57000, 63.
26.60000, 60.
26.63000, 51.
26.66000, 57.
26.69000, 62.
26.72000, 67.
26.75000, 44.
26.78000, 48.
26.81000, 59.
26.84000, 53.
26.87000, 64.
26.90000, 63.
26.93000, 47.
26.96000, 61.
26.99000, 48.
27.02000, 49.
27.05000, 43.
27.08000, 50.
27.11000, 43.
27.14000, 48.
27.17000, 52.
27.20000, 53.
27.23000, 44.
27.26000, 49.
27.29000, 49.
27.32000, 53.
27.35000, 58.
27.38000, 47.
27.41000, 56.
27.44000, 66.
27.47000, 41.
27.50000, 50.
27.53000, 38.
27.56000, 36.
27.59000, 47.
27.62000, 54.
27.65000, 51.
27.68000, 44.
27.71000, 44.
27.74000, 29.
27.77000, 45.
27.80000, 53.
27.83000, 52.
27.86000, 47.
27.89000, 58.
27.92000, 36.
27.95000, 38.
27.98000, 51.
28.01000, 48.
28.04000, 33.
28.07000, 41.
28.10000, 44.
28.13000, 54.
28.16000, 54.
28.19000, 59.
28.22000, 47.
28.25000, 38.
28.28000, 42.
28.31000, 41.
28.34000, 44.
28.37000, 52.
28.40000, 45.
28.43000, 35.
28.46000, 57.
28.49000, 52.
28.52000, 51.
28.55000, 41.
28.58000, 32.
28.61000, 44.
28.64000, 34.
28.67000, 47.
28.70000, 34.
28.73000, 61.
28.76000, 48.
28.79000, 54.
28.82000, 42.
28.85000, 36.
28.88000, 50.
28.91000, 48.
28.94000, 32.
28.97000, 47.
29.00000, 57.
29.03000, 47.
29.06000, 36.
29.09000, 53.
29.12000, 57.
29.15000, 50.
29.18000, 34.
29.21000, 41.
29.24000, 51.
29.27000, 34.
29.30000, 48.
29.33000, 44.
29.36000, 46.
29.39000, 48.
29.42000, 39.
29.45000, 46.
29.48000, 33.
29.51000, 29.
29.54000, 34.
29.57000, 36.
29.60000, 37.
29.63000, 41.
29.66000, 32.
29.69000, 30.
29.72000, 38.
29.75000, 46.
29.78000, 31.
29.81000, 40.
29.84000, 32.
29.87000, 43.
29.90000, 53.
29.93000, 38.
29.96000, 38.
29.99000, 33.
30.02000, 29.
30.05000, 28.
30.08000, 32.
30.11000, 26.
30.14000, 42.
30.17000, 38.
30.20000, 42.
30.23000, 26.
30.26000, 23.
30.29000, 31.
30.32000, 28.
30.35000, 28.
30.38000, 37.
30.41000, 38.
30.44000, 26.
30.47000, 30.
30.50000, 34.
30.53000, 35.
30.56000, 28.
30.59000, 35.
30.62000, 36.
30.65000, 32.
30.68000, 36.
30.71000, 39.
30.74000, 33.
30.77000, 43.
30.80000, 35.
30.83000, 43.
30.86000, 25.
30.89000, 26.
30.92000, 38.
30.95000, 23.
30.98000, 37.
31.01000, 33.
31.04000, 24.
31.07000, 30.
31.10000, 43.
31.13000, 25.
31.16000, 30.
31.19000, 51.
31.22000, 27.
31.25000, 40.
31.28000, 40.
31.31000, 40.
31.34000, 34.
31.37000, 22.
31.40000, 26.
31.43000, 23.
31.46000, 38.
31.49000, 29.
31.52000, 29.
31.55000, 27.
31.58000, 32.
31.61000, 31.
31.64000, 32.
31.67000, 25.
31.70000, 30.
31.73000, 49.
31.76000, 39.
31.79000, 30.
31.82000, 37.
31.85000, 32.
31.88000, 32.
31.91000, 34.
31.94000, 41.
31.97000, 34.
32.00000, 33.
32.03000, 38.
32.06000, 34.
32.09000, 34.
32.12000, 33.
32.15000, 29.
32.18000, 31.
32.21000, 34.
32.24000, 42.
32.27000, 33.
32.30000, 28.
32.33000, 35.
32.36000, 25.
32.39000, 34.
32.42000, 30.
32.45000, 19.
32.48000, 28.
32.51000, 22.
32.54000, 21.
32.57000, 24.
32.60000, 31.
32.63000, 27.
32.66000, 28.
32.69000, 28.
32.72000, 27.
32.75000, 26.
32.78000, 24.
32.81000, 26.
32.84000, 30.
32.87000, 28.
32.90000, 16.
32.93000, 24.
32.96000, 23.
32.99000, 21.
33.02000, 29.
33.05000, 30.
33.08000, 20.
33.11000, 24.
33.14000, 30.
33.17000, 29.
33.20000, 28.
33.23000, 27.
33.26000, 24.
33.29000, 23.
33.32000, 20.
33.35000, 27.
33.38000, 22.
33.41000, 25.
33.44000, 16.
33.47000, 29.
33.50000, 15.
33.53000, 16.
33.56000, 15.
33.59000, 26.
33.62000, 25.
33.65000, 23.
33.68000, 17.
33.71000, 21.
33.74000, 15.
33.77000, 19.
33.80000, 23.
33.83000, 25.
33.86000, 19.
33.89000, 17.
33.92000, 20.
33.95000, 19.
33.98000, 24.
34.01000, 18.
34.04000, 18.
34.07000, 15.
34.10000, 16.
34.13000, 24.
34.16000, 22.
34.19000, 14.
34.22000, 14.
34.25000, 21.
34.28000, 20.
34.31000, 22.
34.34000, 26.
34.37000, 19.
34.40000, 28.
34.43000, 21.
34.46000, 24.
34.49000, 17.
34.52000, 15.
34.55000, 16.
34.58000, 18.
34.61000, 24.
34.64000, 24.
34.67000, 24.
34.70000, 22.
34.73000, 17.
34.76000, 25.
34.79000, 16.
34.82000, 14.
34.85000, 11.
34.88000, 18.
34.91000, 15.
34.94000, 17.
34.97000, 20.
35.00000, 16.
35.03000, 18.
35.06000, 21.
35.09000, 12.
35.12000, 14.
35.15000, 20.
35.18000, 9.
35.21000, 23.
35.24000, 22.
35.27000, 21.
35.30000, 23.
35.33000, 14.
35.36000, 15.
35.39000, 18.
35.42000, 17.
35.45000, 16.
35.48000, 17.
35.51000, 15.
35.54000, 13.
35.57000, 21.
35.60000, 12.
35.63000, 15.
35.66000, 12.
35.69000, 17.
35.72000, 10.
35.75000, 19.
35.78000, 11.
35.81000, 17.
35.84000, 16.
35.87000, 11.
35.90000, 5.
35.93000, 15.
35.96000, 18.
35.99000, 7.
36.02000, 16.
36.05000, 12.
36.08000, 19.
36.11000, 12.
36.14000, 15.
36.17000, 20.
36.20000, 13.
36.23000, 19.
36.26000, 15.
36.29000, 10.
36.32000, 18.
36.35000, 13.
36.38000, 14.
36.41000, 12.
36.44000, 19.
36.47000, 18.
36.50000, 17.
36.53000, 11.
36.56000, 13.
36.59000, 16.
36.62000, 12.
36.65000, 11.
36.68000, 14.
36.71000, 13.
36.74000, 18.
36.77000, 10.
36.80000, 14.
36.83000, 10.
36.86000, 13.
36.89000, 11.
36.92000, 10.
36.95000, 16.
36.98000, 6.
37.01000, 15.
37.04000, 8.
37.07000, 17.
37.10000, 10.
37.13000, 14.
37.16000, 15.
37.19000, 18.
37.22000, 12.
37.25000, 18.
37.28000, 7.
37.31000, 14.
37.34000, 10.
37.37000, 15.
37.40000, 8.
37.43000, 7.
37.46000, 12.
37.49000, 11.
37.52000, 13.
37.55000, 13.
37.58000, 15.
37.61000, 5.
37.64000, 15.
37.67000, 9.
37.70000, 9.
37.73000, 4.
37.76000, 6.
37.79000, 11.
37.82000, 14.
37.85000, 4.
37.88000, 4.
37.91000, 11.
37.94000, 12.
37.97000, 10.
38.00000, 7.
38.03000, 11.
38.06000, 8.
38.09000, 12.
38.12000, 9.
38.15000, 14.
38.18000, 7.
38.21000, 9.
38.24000, 9.
38.27000, 10.
38.30000, 12.
38.33000, 9.
38.36000, 10.
38.39000, 13.
38.42000, 10.
38.45000, 8.
38.48000, 6.
38.51000, 4.
38.54000, 7.
38.57000, 4.
38.60000, 12.
38.63000, 3.
38.66000, 7.
38.69000, 11.
38.72000, 6.
38.75000, 8.
38.78000, 8.
38.81000, 9.
38.84000, 9.
38.87000, 5.
38.90000, 6.
38.93000, 7.
38.96000, 7.
38.99000, 4.
39.02000, 9.
39.05000, 7.
39.08000, 14.
39.11000, 6.
39.14000, 6.
39.17000, 12.
39.20000, 6.
39.23000, 6.
39.26000, 7.
39.29000, 9.
39.32000, 7.
39.35000, 3.
39.38000, 5.
39.41000, 7.
39.44000, 7.
39.47000, 6.
39.50000, 4.
39.53000, 10.
39.56000, 9.
39.59000, 8.
39.62000, 6.
39.65000, 6.
39.68000, 11.
39.71000, 6.
39.74000, 6.
39.77000, 10.
39.80000, 6.
39.83000, 8.
39.86000, 8.
39.89000, 12.
39.92000, 8.
39.95000, 7.
39.98000, 3.
40.01000, 1.
40.04000, 2.
40.07000, 7.
40.10000, 6.
40.13000, 10.
40.16000, 10.
40.19000, 4.
40.22000, 6.
40.25000, 5.
40.28000, 10.
40.31000, 5.
40.34000, 5.
40.37000, 5.
40.40000, 5.
40.43000, 8.
40.46000, 3.
40.49000, 7.
40.52000, 3.
40.55000, 0.
#ENDOFDATA   :