File: sample_data/data/Spectrum value from standard/Nist2587/Spectrum 32.txt
#FORMAT      : EMSA/MAS Spectral Data File
#VERSION     : 1.0
#TITLE       : Spectrum 32
#DATE        : 21-AUG-2025
#TIME        : 15:36
#OWNER       : XGT7200
#NPOINTS     : 4096.
#NCOLUMNS    : 1.
#XUNITS      : keV
#YUNITS      : counts
#DATATYPE    : XY
#XPERCHAN    : 0.0100000
#OFFSET      : -0.400000
#SIGNALTYPE  : EDS
#CHOFFSET    : 40.0000
#LIVETIME    : 30
#REALTIME    : 39.9673
#BEAMKV      : 50.0000
#PROBECUR    : 725000.
#MAGCAM      : 100.000
#XTILTSTGE   : 0.0
#AZIMANGLE   : 0.0
#ELEVANGLE   : 45.0
#XPOSITION mm: 0.0000
#YPOSITION mm: 0.0000
#ZPOSITION mm: 0.0000
##OXINSTPT   : 4
##OXINSTSTROB: 72.14
#SPECTRUM    : Spectral Data Starts Here
-0.40000, 0.
-0.37000, 0.
-0.34000, 0.
-0.31000, 0.
-0.28000, 0.
-0.25000, 0.
-0.22000, 0.
-0.19000, 0.
-0.16000, 0.
-0.13000, 0.
-0.10000, 0.
-0.07000, 0.
-0.04000, 0.
-0.01000, 0.
0.02000, 0.
0.05000, 0.
0.08000, 0.
0.11000, 0.
0.14000, 0.
0.17000, 0.
0.20000, 0.
0.23000, 0.
0.26000, 0.
0.29000, 0.
0.32000, 0.
0.35000, 2.
0.38000, 9.
0.41000, 31.
0.44000, 43.
0.47000, 50.
0.50000, 48.
0.53000, 51.
0.56000, 59.
0.59000, 51.
0.62000, 49.
0.65000, 52.
0.68000, 51.
0.71000, 44.
0.74000, 36.
0.77000, 37.
0.80000, 37.
0.83000, 41.
0.86000, 54.
0.89000, 41.
0.92000, 45.
0.95000, 46.
0.98000, 53.
1.01000, 54.
1.04000, 43.
1.07000, 48.
1.10000, 54.
1.13000, 49.
1.16000, 43.
1.19000, 42.
1.22000, 59.
1.25000, 68.
1.28000, 62.
1.31000, 54.
1.34000, 37.
1.37000, 50.
1.40000, 102.
1.43000, 281.
1.46000, 567.
1.49000, 734.
1.52000, 621.
1.55000, 333.
1.58000, 151.
1.61000, 149.
1.64000, 393.
1.67000, 1556.
1.70000, 4404.
1.73000, 7687.
1.76000, 7767.
1.79000, 5052.
1.82000, 2042.
1.85000, 729.
1.88000, 302.
1.91000, 135.
1.94000, 68.
1.97000, 60.
2.00000, 90.
2.03000, 87.
2.06000, 57.
2.09000, 42.
2.12000, 39.
2.15000, 35.
2.18000, 31.
2.21000, 34.
2.24000, 45.
2.27000, 94.
2.30000, 100.
2.33000, 137.
2.36000, 127.
2.39000, 121.
2.42000, 99.
2.45000, 104.
2.48000, 76.
2.51000, 50.
2.54000, 51.
2.57000, 66.
2.60000, 85.
2.63000, 205.
2.66000, 335.
2.69000, 459.
2.72000, 427.
2.75000, 300.
2.78000, 231.
2.81000, 222.
2.84000, 251.
2.87000, 217.
2.90000, 168.
2.93000, 124.
2.96000, 95.
2.99000, 69.
3.02000, 43.
3.05000, 49.
3.08000, 46.
3.11000, 42.
3.14000, 27.
3.17000, 57.
3.20000, 79.
3.23000, 175.
3.26000, 357.
3.29000, 609.
3.32000, 768.
3.35000, 641.
3.38000, 357.
3.41000, 193.
3.44000, 76.
3.47000, 65.
3.50000, 76.
3.53000, 85.
3.56000, 128.
3.59000, 210.
3.62000, 291.
3.65000, 531.
3.68000, 639.
3.71000, 631.
3.74000, 487.
3.77000, 234.
3.80000, 120.
3.83000, 46.
3.86000, 33.
3.89000, 44.
3.92000, 51.
3.95000, 69.
3.98000, 122.
4.01000, 112.
4.04000, 132.
4.07000, 83.
4.10000, 57.
4.13000, 33.
4.16000, 20.
4.19000, 24.
4.22000, 36.
4.25000, 33.
4.28000, 35.
4.31000, 44.
4.34000, 35.
4.37000, 48.
4.40000, 125.
4.43000, 254.
4.46000, 444.
4.49000, 611.
4.52000, 675.
4.55000, 496.
4.58000, 335.
4.61000, 186.
4.64000, 125.
4.67000, 95.
4.70000, 82.
4.73000, 82.
4.76000, 65.
4.79000, 74.
4.82000, 80.
4.85000, 109.
4.88000, 128.
4.91000, 143.
4.94000, 180.
4.97000, 119.
5.00000, 109.
5.03000, 66.
5.06000, 58.
5.09000, 52.
5.12000, 57.
5.15000, 53.
5.18000, 61.
5.21000, 52.
5.24000, 61.
5.27000, 53.
5.30000, 55.
5.33000, 67.
5.36000, 94.
5.39000, 80.
5.42000, 75.
5.45000, 78.
5.48000, 81.
5.51000, 61.
5.54000, 75.
5.57000, 65.
5.60000, 79.
5.63000, 69.
5.66000, 54.
5.69000, 61.
5.72000, 79.
5.75000, 65.
5.78000, 73.
5.81000, 131.
5.84000, 190.
5.87000, 222.
5.90000, 253.
5.93000, 243.
5.96000, 184.
5.99000, 119.
6.02000, 85.
6.05000, 80.
6.08000, 66.
6.11000, 87.
6.14000, 109.
6.17000, 127.
6.20000, 158.
6.23000, 336.
6.26000, 950.
6.29000, 2113.
6.32000, 4486.
6.35000, 7761.
6.38000, 10066.
6.41000, 10552.
6.44000, 8567.
6.47000, 5545.
6.50000, 2886.
6.53000, 1189.
6.56000, 469.
6.59000, 205.
6.62000, 131.
6.65000, 117.
6.68000, 94.
6.71000, 91.
6.74000, 77.
6.77000, 105.
6.80000, 104.
6.83000, 134.
6.86000, 157.
6.89000, 205.
6.92000, 329.
6.95000, 580.
6.98000, 938.
7.01000, 1393.
7.04000, 1731.
7.07000, 1716.
7.10000, 1360.
7.13000, 928.
7.16000, 507.
7.19000, 246.
7.22000, 143.
7.25000, 96.
7.28000, 99.
7.31000, 103.
7.34000, 79.
7.37000, 104.
7.40000, 93.
7.43000, 109.
7.46000, 106.
7.49000, 90.
7.52000, 103.
7.55000, 83.
7.58000, 91.
7.61000, 74.
7.64000, 73.
7.67000, 78.
7.70000, 103.
7.73000, 94.
7.76000, 88.
7.79000, 100.
7.82000, 99.
7.85000, 125.
7.88000, 96.
7.91000, 127.
7.94000, 169.
7.97000, 169.
8.00000, 208.
8.03000, 212.
8.06000, 226.
8.09000, 235.
8.12000, 175.
8.15000, 161.
8.18000, 160.
8.21000, 141.
8.24000, 134.
8.27000, 117.
8.30000, 129.
8.33000, 115.
8.36000, 116.
8.39000, 111.
8.42000, 124.
8.45000, 124.
8.48000, 141.
8.51000, 167.
8.54000, 244.
8.57000, 294.
8.60000, 338.
8.63000, 379.
8.66000, 347.
8.69000, 295.
8.72000, 234.
8.75000, 174.
8.78000, 163.
8.81000, 154.
8.84000, 135.
8.87000, 139.
8.90000, 135.
8.93000, 145.
8.96000, 133.
8.99000, 131.
9.02000, 143.
9.05000, 139.
9.08000, 150.
9.11000, 165.
9.14000, 169.
9.17000, 209.
9.20000, 206.
9.23000, 179.
9.26000, 198.
9.29000, 156.
9.32000, 143.
9.35000, 140.
9.38000, 133.
9.41000, 145.
9.44000, 143.
9.47000, 154.
9.50000, 162.
9.53000, 167.
9.56000, 179.
9.59000, 206.
9.62000, 184.
9.65000, 168.
9.68000, 151.
9.71000, 158.
9.74000, 131.
9.77000, 148.
9.80000, 160.
9.83000, 141.
9.86000, 150.
9.89000, 151.
9.92000, 169.
9.95000, 154.
9.98000, 167.
10.01000, 152.
10.04000, 153.
10.07000, 147.
10.10000, 140.
10.13000, 142.
10.16000, 154.
10.19000, 164.
10.22000, 164.
10.25000, 145.
10.28000, 166.
10.31000, 180.
10.34000, 220.
10.37000, 252.
10.40000, 449.
10.43000, 630.
10.46000, 901.
10.49000, 1155.
10.52000, 1305.
10.55000, 1349.
10.58000, 1230.
10.61000, 983.
10.64000, 651.
10.67000, 449.
10.70000, 318.
10.73000, 206.
10.76000, 187.
10.79000, 145.
10.82000, 170.
10.85000, 173.
10.88000, 148.
10.91000, 163.
10.94000, 155.
10.97000, 158.
11.00000, 177.
11.03000, 158.
11.06000, 184.
11.09000, 162.
11.12000, 167.
11.15000, 172.
11.18000, 173.
11.21000, 183.
11.24000, 184.
11.27000, 175.
11.30000, 190.
11.33000, 213.
11.36000, 199.
11.39000, 189.
11.42000, 195.
11.45000, 152.
11.48000, 169.
11.51000, 187.
11.54000, 180.
11.57000, 166.
11.60000, 170.
11.63000, 157.
11.66000, 142.
11.69000, 169.
11.72000, 167.
11.75000, 174.
11.78000, 176.
11.81000, 149.
11.84000, 179.
11.87000, 186.
11.90000, 180.
11.93000, 184.
11.96000, 185.
11.99000, 182.
12.02000, 174.
12.05000, 202.
12.08000, 178.
12.11000, 208.
12.14000, 205.
12.17000, 223.
12.20000, 249.
12.23000, 241.
12.26000, 235.
12.29000, 281.
12.32000, 238.
12.35000, 249.
12.38000, 236.
12.41000, 295.
12.44000, 360.
12.47000, 492.
12.50000, 685.
12.53000, 878.
12.56000, 1139.
12.59000, 1267.
12.62000, 1225.
12.65000, 1071.
12.68000, 919.
12.71000, 761.
12.74000, 534.
12.77000, 419.
12.80000, 315.
12.83000, 276.
12.86000, 274.
12.89000, 262.
12.92000, 223.
12.95000, 245.
12.98000, 227.
13.01000, 207.
13.04000, 228.
13.07000, 239.
13.10000, 209.
13.13000, 186.
13.16000, 209.
13.19000, 186.
13.22000, 200.
13.25000, 234.
13.28000, 212.
13.31000, 236.
13.34000, 275.
13.37000, 249.
13.40000, 272.
13.43000, 249.
13.46000, 252.
13.49000, 206.
13.52000, 194.
13.55000, 192.
13.58000, 173.
13.61000, 174.
13.64000, 156.
13.67000, 165.
13.70000, 166.
13.73000, 170.
13.76000, 163.
13.79000, 162.
13.82000, 158.
13.85000, 178.
13.88000, 189.
13.91000, 165.
13.94000, 206.
13.97000, 208.
14.00000, 232.
14.03000, 229.
14.06000, 275.
14.09000, 283.
14.12000, 308.
14.15000, 293.
14.18000, 325.
14.21000, 289.
14.24000, 245.
14.27000, 213.
14.30000, 191.
14.33000, 180.
14.36000, 191.
14.39000, 198.
14.42000, 179.
14.45000, 179.
14.48000, 183.
14.51000, 163.
14.54000, 189.
14.57000, 203.
14.60000, 221.
14.63000, 253.
14.66000, 280.
14.69000, 341.
14.72000, 317.
14.75000, 363.
14.78000, 338.
14.81000, 347.
14.84000, 295.
14.87000, 285.
14.90000, 212.
14.93000, 254.
14.96000, 227.
14.99000, 220.
15.02000, 205.
15.05000, 261.
15.08000, 223.
15.11000, 224.
15.14000, 214.
15.17000, 218.
15.20000, 214.
15.23000, 197.
15.26000, 206.
15.29000, 182.
15.32000, 179.
15.35000, 173.
15.38000, 160.
15.41000, 172.
15.44000, 168.
15.47000, 194.
15.50000, 198.
15.53000, 200.
15.56000, 216.
15.59000, 226.
15.62000, 264.
15.65000, 362.
15.68000, 369.
15.71000, 382.
15.74000, 366.
15.77000, 410.
15.80000, 366.
15.83000, 303.
15.86000, 291.
15.89000, 232.
15.92000, 232.
15.95000, 169.
15.98000, 177.
16.01000, 162.
16.04000, 152.
16.07000, 147.
16.10000, 180.
16.13000, 166.
16.16000, 158.
16.19000, 152.
16.22000, 162.
16.25000, 149.
16.28000, 159.
16.31000, 167.
16.34000, 160.
16.37000, 164.
16.40000, 163.
16.43000, 146.
16.46000, 181.
16.49000, 178.
16.52000, 166.
16.55000, 169.
16.58000, 164.
16.61000, 163.
16.64000, 177.
16.67000, 190.
16.70000, 164.
16.73000, 178.
16.76000, 176.
16.79000, 146.
16.82000, 156.
16.85000, 179.
16.88000, 173.
16.91000, 134.
16.94000, 167.
16.97000, 185.
17.00000, 163.
17.03000, 172.
17.06000, 181.
17.09000, 173.
17.12000, 168.
17.15000, 149.
17.18000, 174.
17.21000, 189.
17.24000, 183.
17.27000, 175.
17.30000, 192.
17.33000, 174.
17.36000, 181.
17.39000, 178.
17.42000, 200.
17.45000, 193.
17.48000, 229.
17.51000, 218.
17.54000, 220.
17.57000, 213.
17.60000, 224.
17.63000, 231.
17.66000, 252.
17.69000, 234.
17.72000, 236.
17.75000, 238.
17.78000, 217.
17.81000, 212.
17.84000, 214.
17.87000, 229.
17.90000, 235.
17.93000, 223.
17.96000, 217.
17.99000, 217.
18.02000, 261.
18.05000, 259.
18.08000, 252.
18.11000, 274.
18.14000, 275.
18.17000, 280.
18.20000, 311.
18.23000, 327.
18.26000, 330.
18.29000, 348.
18.32000, 396.
18.35000, 393.
18.38000, 501.
18.41000, 508.
18.44000, 542.
18.47000, 588.
18.50000, 653.
18.53000, 691.
18.56000, 726.
18.59000, 817.
18.62000, 836.
18.65000, 883.
18.68000, 975.
18.71000, 903.
18.74000, 978.
18.77000, 999.
18.80000, 989.
18.83000, 1021.
18.86000, 1024.
18.89000, 904.
18.92000, 973.
18.95000, 890.
18.98000, 803.
19.01000, 810.
19.04000, 747.
19.07000, 682.
19.10000, 653.
19.13000, 596.
19.16000, 522.
19.19000, 483.
19.22000, 415.
19.25000, 424.
19.28000, 386.
19.31000, 381.
19.34000, 337.
19.37000, 315.
19.40000, 300.
19.43000, 272.
19.46000, 303.
19.49000, 281.
19.52000, 244.
19.55000, 218.
19.58000, 207.
19.61000, 249.
19.64000, 195.
19.67000, 235.
19.70000, 186.
19.73000, 178.
19.76000, 196.
19.79000, 212.
19.82000, 168.
19.85000, 219.
19.88000, 208.
19.91000, 257.
19.94000, 305.
19.97000, 356.
20.00000, 403.
20.03000, 442.
20.06000, 516.
20.09000, 588.
20.12000, 596.
20.15000, 665.
20.18000, 583.
20.21000, 606.
20.24000, 496.
20.27000, 425.
20.30000, 331.
20.33000, 287.
20.36000, 231.
20.39000, 173.
20.42000, 191.
20.45000, 144.
20.48000, 163.
20.51000, 171.
20.54000, 173.
20.57000, 190.
20.60000, 191.
20.63000, 205.
20.66000, 182.
20.69000, 202.
20.72000, 207.
20.75000, 213.
20.78000, 233.
20.81000, 250.
20.84000, 258.
20.87000, 268.
20.90000, 273.
20.93000, 266.
20.96000, 272.
20.99000, 288.
21.02000, 300.
21.05000, 271.
21.08000, 253.
21.11000, 265.
21.14000, 289.
21.17000, 273.
21.20000, 253.
21.23000, 234.
21.26000, 228.
21.29000, 254.
21.32000, 214.
21.35000, 212.
21.38000, 201.
21.41000, 220.
21.44000, 189.
21.47000, 155.
21.50000, 173.
21.53000, 171.
21.56000, 166.
21.59000, 125.
21.62000, 135.
21.65000, 146.
21.68000, 133.
21.71000, 125.
21.74000, 121.
21.77000, 129.
21.80000, 115.
21.83000, 125.
21.86000, 131.
21.89000, 127.
21.92000, 102.
21.95000, 107.
21.98000, 119.
22.01000, 75.
22.04000, 95.
22.07000, 111.
22.10000, 98.
22.13000, 103.
22.16000, 91.
22.19000, 86.
22.22000, 112.
22.25000, 103.
22.28000, 95.
22.31000, 93.
22.34000, 104.
22.37000, 105.
22.40000, 87.
22.43000, 91.
22.46000, 99.
22.49000, 119.
22.52000, 112.
22.55000, 147.
22.58000, 143.
22.61000, 144.
22.64000, 151.
22.67000, 155.
22.70000, 150.
22.73000, 142.
22.76000, 128.
22.79000, 143.
22.82000, 116.
22.85000, 108.
22.88000, 95.
22.91000, 89.
22.94000, 79.
22.97000, 82.
23.00000, 78.
23.03000, 92.
23.06000, 95.
23.09000, 78.
23.12000, 110.
23.15000, 89.
23.18000, 116.
23.21000, 86.
23.24000, 80.
23.27000, 86.
23.30000, 62.
23.33000, 87.
23.36000, 67.
23.39000, 73.
23.42000, 75.
23.45000, 71.
23.48000, 81.
23.51000, 74.
23.54000, 77.
23.57000, 63.
23.60000, 66.
23.63000, 70.
23.66000, 71.
23.69000, 76.
23.72000, 65.
23.75000, 63.
23.78000, 83.
23.81000, 66.
23.84000, 65.
23.87000, 52.
23.90000, 83.
23.93000, 58.
23.96000, 65.
23.99000, 91.
24.02000, 74.
24.05000, 79.
24.08000, 86.
24.11000, 80.
24.14000, 71.
24.17000, 76.
24.20000, 70.
24.23000, 72.
24.26000, 82.
24.29000, 57.
24.32000, 76.
24.35000, 78.
24.38000, 65.
24.41000, 70.
24.44000, 69.
24.47000, 74.
24.50000, 57.
24.53000, 70.
24.56000, 67.
24.59000, 57.
24.62000, 56.
24.65000, 64.
24.68000, 82.
24.71000, 64.
24.74000, 79.
24.77000, 62.
24.80000, 79.
24.83000, 68.
24.86000, 74.
24.89000, 66.
24.92000, 69.
24.95000, 57.
24.98000, 58.
25.01000, 62.
25.04000, 75.
25.07000, 81.
25.10000, 67.
25.13000, 78.
25.16000, 80.
25.19000, 82.
25.22000, 86.
25.25000, 84.
25.28000, 72.
25.31000, 67.
25.34000, 80.
25.37000, 93.
25.40000, 64.
25.43000, 59.
25.46000, 81.
25.49000, 50.
25.52000, 59.
25.55000, 74.
25.58000, 70.
25.61000, 64.
25.64000, 63.
25.67000, 63.
25.70000, 50.
25.73000, 56.
25.76000, 63.
25.79000, 61.
25.82000, 59.
25.85000, 61.
25.88000, 57.
25.91000, 63.
25.94000, 66.
25.97000, 62.
26.00000, 63.
26.03000, 59.
26.06000, 57.
26.09000, 66.
26.12000, 55.
26.15000, 57.
26.18000, 60.
26.21000, 58.
26.24000, 64.
26.27000, 62.
26.30000, 66.
26.33000, 67.
26.36000, 64.
26.39000, 52.
26.42000, 47.
26.45000, 55.
26.48000, 50.
26.51000, 42.
26.54000, 61.
26.57000, 65.
26.60000, 49.
26.63000, 60.
26.66000, 59.
26.69000, 55.
26.72000, 53.
26.75000, 60.
26.78000, 52.
26.81000, 57.
26.84000, 57.
26.87000, 64.
26.90000, 44.
26.93000, 55.
26.96000, 50.
26.99000, 57.
27.02000, 76.
27.05000, 47.
27.08000, 54.
27.11000, 46.
27.14000, 49.
27.17000, 58.
27.20000, 57.
27.23000, 57.
27.26000, 47.
27.29000, 47.
27.32000, 64.
27.35000, 58.
27.38000, 51.
27.41000, 59.
27.44000, 58.
27.47000, 38.
27.50000, 43.
27.53000, 60.
27.56000, 51.
27.59000, 59.
27.62000, 59.
27.65000, 53.
27.68000, 57.
27.71000, 51.
27.74000, 50.
27.77000, 51.
27.80000, 43.
27.83000, 42.
27.86000, 51.
27.89000, 60.
27.92000, 52.
27.95000, 69.
27.98000, 47.
28.01000, 47.
28.04000, 54.
28.07000, 51.
28.10000, 36.
28.13000, 55.
28.16000, 43.
28.19000, 48.
28.22000, 43.
28.25000, 37.
28.28000, 38.
28.31000, 48.
28.34000, 66.
28.37000, 38.
28.40000, 47.
28.43000, 51.
28.46000, 52.
28.49000, 38.
28.52000, 63.
28.55000, 38.
28.58000, 54.
28.61000, 38.
28.64000, 34.
28.67000, 44.
28.70000, 45.
28.73000, 40.
28.76000, 40.
28.79000, 45.
28.82000, 35.
28.85000, 49.
28.88000, 42.
28.91000, 30.
28.94000, 31.
28.97000, 33.
29.00000, 37.
29.03000, 49.
29.06000, 40.
29.09000, 55.
29.12000, 40.
29.15000, 50.
29.18000, 45.
29.21000, 48.
29.24000, 41.
29.27000, 44.
29.30000, 53.
29.33000, 39.
29.36000, 39.
29.39000, 37.
29.42000, 39.
29.45000, 38.
29.48000, 42.
29.51000, 39.
29.54000, 39.
29.57000, 49.
29.60000, 54.
29.63000, 33.
29.66000, 40.
29.69000, 42.
29.72000, 43.
29.75000, 39.
29.78000, 32.
29.81000, 35.
29.84000, 44.
29.87000, 44.
29.90000, 41.
29.93000, 39.
29.96000, 44.
29.99000, 39.
30.02000, 34.
30.05000, 42.
30.08000, 43.
30.11000, 40.
30.14000, 47.
30.17000, 43.
30.20000, 36.
30.23000, 33.
30.26000, 40.
30.29000, 38.
30.32000, 51.
30.35000, 30.
30.38000, 43.
30.41000, 39.
30.44000, 42.
30.47000, 39.
30.50000, 36.
30.53000, 37.
30.56000, 30.
30.59000, 40.
30.62000, 42.
30.65000, 44.
30.68000, 33.
30.71000, 30.
30.74000, 36.
30.77000, 38.
30.80000, 33.
30.83000, 39.
30.86000, 22.
30.89000, 39.
30.92000, 36.
30.95000, 36.
30.98000, 37.
31.01000, 40.
31.04000, 27.
31.07000, 39.
31.10000, 31.
31.13000, 16.
31.16000, 39.
31.19000, 29.
31.22000, 41.
31.25000, 39.
31.28000, 36.
31.31000, 31.
31.34000, 31.
31.37000, 41.
31.40000, 28.
31.43000, 34.
31.46000, 27.
31.49000, 37.
31.52000, 36.
31.55000, 31.
31.58000, 27.
31.61000, 31.
31.64000, 31.
31.67000, 31.
31.70000, 35.
31.73000, 28.
31.76000, 30.
31.79000, 28.
31.82000, 37.
31.85000, 28.
31.88000, 28.
31.91000, 33.
31.94000, 27.
31.97000, 30.
32.00000, 30.
32.03000, 39.
32.06000, 36.
32.09000, 39.
32.12000, 28.
32.15000, 36.
32.18000, 40.
32.21000, 23.
32.24000, 25.
32.27000, 37.
32.30000, 25.
32.33000, 26.
32.36000, 38.
32.39000, 32.
32.42000, 28.
32.45000, 26.
32.48000, 30.
32.51000, 37.
32.54000, 28.
32.57000, 33.
32.60000, 20.
32.63000, 25.
32.66000, 27.
32.69000, 30.
32.72000, 29.
32.75000, 24.
32.78000, 38.
32.81000, 23.
32.84000, 29.
32.87000, 28.
32.90000, 33.
32.93000, 25.
32.96000, 18.
32.99000, 36.
33.02000, 26.
33.05000, 28.
33.08000, 22.
33.11000, 25.
33.14000, 28.
33.17000, 28.
33.20000, 21.
33.23000, 30.
33.26000, 25.
33.29000, 25.
33.32000, 21.
33.35000, 27.
33.38000, 24.
33.41000, 28.
33.44000, 21.
33.47000, 18.
33.50000, 20.
33.53000, 23.
33.56000, 29.
33.59000, 32.
33.62000, 23.
33.65000, 14.
33.68000, 24.
33.71000, 24.
33.74000, 26.
33.77000, 17.
33.80000, 16.
33.83000, 27.
33.86000, 26.
33.89000, 22.
33.92000, 17.
33.95000, 20.
33.98000, 27.
34.01000, 20.
34.04000, 23.
34.07000, 20.
34.10000, 26.
34.13000, 24.
34.16000, 16.
34.19000, 23.
34.22000, 15.
34.25000, 19.
34.28000, 16.
34.31000, 19.
34.34000, 20.
34.37000, 23.
34.40000, 17.
34.43000, 21.
34.46000, 26.
34.49000, 22.
34.52000, 15.
34.55000, 20.
34.58000, 24.
34.61000, 22.
34.64000, 28.
34.67000, 14.
34.70000, 22.
34.73000, 19.
34.76000, 13.
34.79000, 20.
34.82000, 17.
34.85000, 15.
34.88000, 20.
34.91000, 25.
34.94000, 25.
34.97000, 17.
35.00000, 18.
35.03000, 32.
35.06000, 14.
35.09000, 12.
35.12000, 21.
35.15000, 15.
35.18000, 17.
35.21000, 18.
35.24000, 19.
35.27000, 10.
35.30000, 22.
35.33000, 15.
35.36000, 15.
35.39000, 17.
35.42000, 17.
35.45000, 16.
35.48000, 16.
35.51000, 17.
35.54000, 22.
35.57000, 17.
35.60000, 11.
35.63000, 15.
35.66000, 17.
35.69000, 14.
35.72000, 10.
35.75000, 23.
35.78000, 14.
35.81000, 13.
35.84000, 17.
35.87000, 17.
35.90000, 14.
35.93000, 12.
35.96000, 12.
35.99000, 15.
36.02000, 15.
36.05000, 13.
36.08000, 14.
36.11000, 16.
36.14000, 20.
36.17000, 10.
36.20000, 17.
36.23000, 13.
36.26000, 13.
36.29000, 13.
36.32000, 14.
36.35000, 14.
36.38000, 10.
36.41000, 11.
36.44000, 14.
36.47000, 12.
36.50000, 15.
36.53000, 15.
36.56000, 16.
36.59000, 15.
36.62000, 13.
36.65000, 19.
36.68000, 12.
36.71000, 11.
36.74000, 14.
36.77000, 14.
36.80000, 17.
36.83000, 13.
36.86000, 14.
36.89000, 18.
36.92000, 14.
36.95000, 11.
36.98000, 16.
37.01000, 10.
37.04000, 10.
37.07000, 18.
37.10000, 20.
37.13000, 11.
37.16000, 8.
37.19000, 14.
37.22000, 15.
37.25000, 16.
37.28000, 8.
37.31000, 13.
37.34000, 15.
37.37000, 19.
37.40000, 15.
37.43000, 17.
37.46000, 16.
37.49000, 8.
37.52000, 12.
37.55000, 10.
37.58000, 6.
37.61000, 12.
37.64000, 15.
37.67000, 7.
37.70000, 5.
37.73000, 9.
37.76000, 8.
37.79000, 10.
37.82000, 10.
37.85000, 6.
37.88000, 12.
37.91000, 6.
37.94000, 11.
37.97000, 6.
38.00000, 15.
38.03000, 7.
38.06000, 14.
38.09000, 14.
38.12000, 9.
38.15000, 6.
38.18000, 14.
38.21000, 9.
38.24000, 5.
38.27000, 5.
38.30000, 17.
38.33000, 7.
38.36000, 15.
38.39000, 11.
38.42000, 6.
38.45000, 6.
38.48000, 5.
38.51000, 7.
38.54000, 8.
38.57000, 10.
38.60000, 10.
38.63000, 11.
38.66000, 12.
38.69000, 9.
38.72000, 6.
38.75000, 10.
38.78000, 10.
38.81000, 8.
38.84000, 11.
38.87000, 8.
38.90000, 7.
38.93000, 11.
38.96000, 8.
38.99000, 6.
39.02000, 8.
39.05000, 5.
39.08000, 8.
39.11000, 13.
39.14000, 4.
39.17000, 14.
39.20000, 8.
39.23000, 8.
39.26000, 9.
39.29000, 8.
39.32000, 9.
39.35000, 7.
39.38000, 8.
39.41000, 7.
39.44000, 3.
39.47000, 5.
39.50000, 3.
39.53000, 5.
39.56000, 9.
39.59000, 9.
39.62000, 5.
39.65000, 11.
39.68000, 5.
39.71000, 3.
39.74000, 7.
39.77000, 6.
39.80000, 3.
39.83000, 5.
39.86000, 1.
39.89000, 3.
39.92000, 2.
39.95000, 5.
39.98000, 6.
40.01000, 3.
40.04000, 7.
40.07000, 6.
40.10000, 3.
40.13000, 9.
40.16000, 4.
40.19000, 7.
40.22000, 5.
40.25000, 6.
40.28000, 4.
40.31000, 6.
40.34000, 4.
40.37000, 5.
40.40000, 4.
40.43000, 4.
40.46000, 4.
40.49000, 3.
40.52000, 2.
40.55000, 0.
#ENDOFDATA   :