File: sample_data/data/Spectrum value from standard/Nist2587/Spectrum 34.txt
#FORMAT      : EMSA/MAS Spectral Data File
#VERSION     : 1.0
#TITLE       : Spectrum 34
#DATE        : 21-AUG-2025
#TIME        : 15:38
#OWNER       : XGT7200
#NPOINTS     : 4096.
#NCOLUMNS    : 1.
#XUNITS      : keV
#YUNITS      : counts
#DATATYPE    : XY
#XPERCHAN    : 0.0100000
#OFFSET      : -0.400000
#SIGNALTYPE  : EDS
#CHOFFSET    : 40.0000
#LIVETIME    : 30
#REALTIME    : 39.7459
#BEAMKV      : 50.0000
#PROBECUR    : 688000.
#MAGCAM      : 100.000
#XTILTSTGE   : 0.0
#AZIMANGLE   : 0.0
#ELEVANGLE   : 45.0
#XPOSITION mm: 0.0000
#YPOSITION mm: 0.0000
#ZPOSITION mm: 0.0000
##OXINSTPT   : 4
##OXINSTSTROB: 72.11
#SPECTRUM    : Spectral Data Starts Here
-0.40000, 0.
-0.37000, 0.
-0.34000, 0.
-0.31000, 0.
-0.28000, 0.
-0.25000, 0.
-0.22000, 0.
-0.19000, 0.
-0.16000, 0.
-0.13000, 0.
-0.10000, 0.
-0.07000, 0.
-0.04000, 0.
-0.01000, 0.
0.02000, 0.
0.05000, 0.
0.08000, 0.
0.11000, 0.
0.14000, 0.
0.17000, 0.
0.20000, 0.
0.23000, 0.
0.26000, 0.
0.29000, 0.
0.32000, 0.
0.35000, 4.
0.38000, 10.
0.41000, 24.
0.44000, 49.
0.47000, 54.
0.50000, 40.
0.53000, 50.
0.56000, 62.
0.59000, 45.
0.62000, 45.
0.65000, 48.
0.68000, 42.
0.71000, 40.
0.74000, 37.
0.77000, 38.
0.80000, 43.
0.83000, 45.
0.86000, 41.
0.89000, 55.
0.92000, 50.
0.95000, 45.
0.98000, 48.
1.01000, 38.
1.04000, 50.
1.07000, 53.
1.10000, 49.
1.13000, 37.
1.16000, 35.
1.19000, 41.
1.22000, 49.
1.25000, 49.
1.28000, 74.
1.31000, 57.
1.34000, 32.
1.37000, 49.
1.40000, 79.
1.43000, 260.
1.46000, 573.
1.49000, 759.
1.52000, 616.
1.55000, 345.
1.58000, 165.
1.61000, 123.
1.64000, 363.
1.67000, 1548.
1.70000, 4137.
1.73000, 7062.
1.76000, 7257.
1.79000, 4615.
1.82000, 1875.
1.85000, 654.
1.88000, 298.
1.91000, 123.
1.94000, 79.
1.97000, 61.
2.00000, 84.
2.03000, 74.
2.06000, 70.
2.09000, 27.
2.12000, 30.
2.15000, 43.
2.18000, 29.
2.21000, 30.
2.24000, 38.
2.27000, 81.
2.30000, 124.
2.33000, 130.
2.36000, 138.
2.39000, 105.
2.42000, 132.
2.45000, 96.
2.48000, 88.
2.51000, 61.
2.54000, 40.
2.57000, 63.
2.60000, 87.
2.63000, 190.
2.66000, 303.
2.69000, 477.
2.72000, 433.
2.75000, 350.
2.78000, 297.
2.81000, 325.
2.84000, 353.
2.87000, 285.
2.90000, 219.
2.93000, 131.
2.96000, 106.
2.99000, 75.
3.02000, 51.
3.05000, 34.
3.08000, 32.
3.11000, 39.
3.14000, 40.
3.17000, 47.
3.20000, 82.
3.23000, 203.
3.26000, 384.
3.29000, 604.
3.32000, 724.
3.35000, 582.
3.38000, 345.
3.41000, 154.
3.44000, 57.
3.47000, 54.
3.50000, 79.
3.53000, 75.
3.56000, 139.
3.59000, 197.
3.62000, 327.
3.65000, 457.
3.68000, 609.
3.71000, 583.
3.74000, 440.
3.77000, 216.
3.80000, 72.
3.83000, 42.
3.86000, 30.
3.89000, 39.
3.92000, 40.
3.95000, 57.
3.98000, 83.
4.01000, 120.
4.04000, 100.
4.07000, 80.
4.10000, 46.
4.13000, 46.
4.16000, 28.
4.19000, 24.
4.22000, 27.
4.25000, 31.
4.28000, 27.
4.31000, 32.
4.34000, 39.
4.37000, 57.
4.40000, 88.
4.43000, 227.
4.46000, 367.
4.49000, 552.
4.52000, 586.
4.55000, 458.
4.58000, 276.
4.61000, 193.
4.64000, 100.
4.67000, 98.
4.70000, 70.
4.73000, 70.
4.76000, 74.
4.79000, 73.
4.82000, 81.
4.85000, 116.
4.88000, 134.
4.91000, 170.
4.94000, 141.
4.97000, 116.
5.00000, 98.
5.03000, 75.
5.06000, 57.
5.09000, 55.
5.12000, 50.
5.15000, 61.
5.18000, 62.
5.21000, 49.
5.24000, 45.
5.27000, 78.
5.30000, 56.
5.33000, 53.
5.36000, 78.
5.39000, 82.
5.42000, 73.
5.45000, 90.
5.48000, 95.
5.51000, 86.
5.54000, 82.
5.57000, 74.
5.60000, 67.
5.63000, 59.
5.66000, 51.
5.69000, 62.
5.72000, 45.
5.75000, 83.
5.78000, 85.
5.81000, 108.
5.84000, 154.
5.87000, 188.
5.90000, 226.
5.93000, 240.
5.96000, 147.
5.99000, 120.
6.02000, 100.
6.05000, 77.
6.08000, 77.
6.11000, 73.
6.14000, 75.
6.17000, 106.
6.20000, 159.
6.23000, 351.
6.26000, 868.
6.29000, 2171.
6.32000, 4503.
6.35000, 7578.
6.38000, 9931.
6.41000, 10231.
6.44000, 8473.
6.47000, 5542.
6.50000, 2824.
6.53000, 1212.
6.56000, 479.
6.59000, 187.
6.62000, 145.
6.65000, 93.
6.68000, 101.
6.71000, 89.
6.74000, 106.
6.77000, 111.
6.80000, 114.
6.83000, 118.
6.86000, 144.
6.89000, 202.
6.92000, 295.
6.95000, 547.
6.98000, 934.
7.01000, 1391.
7.04000, 1732.
7.07000, 1681.
7.10000, 1380.
7.13000, 898.
7.16000, 466.
7.19000, 298.
7.22000, 116.
7.25000, 96.
7.28000, 75.
7.31000, 95.
7.34000, 92.
7.37000, 86.
7.40000, 100.
7.43000, 88.
7.46000, 100.
7.49000, 100.
7.52000, 87.
7.55000, 73.
7.58000, 83.
7.61000, 72.
7.64000, 81.
7.67000, 68.
7.70000, 86.
7.73000, 91.
7.76000, 91.
7.79000, 85.
7.82000, 89.
7.85000, 109.
7.88000, 130.
7.91000, 114.
7.94000, 141.
7.97000, 191.
8.00000, 198.
8.03000, 235.
8.06000, 234.
8.09000, 223.
8.12000, 217.
8.15000, 177.
8.18000, 164.
8.21000, 136.
8.24000, 113.
8.27000, 125.
8.30000, 125.
8.33000, 112.
8.36000, 124.
8.39000, 121.
8.42000, 129.
8.45000, 121.
8.48000, 124.
8.51000, 189.
8.54000, 250.
8.57000, 298.
8.60000, 320.
8.63000, 363.
8.66000, 359.
8.69000, 283.
8.72000, 219.
8.75000, 190.
8.78000, 151.
8.81000, 155.
8.84000, 135.
8.87000, 132.
8.90000, 153.
8.93000, 148.
8.96000, 157.
8.99000, 135.
9.02000, 163.
9.05000, 113.
9.08000, 150.
9.11000, 172.
9.14000, 191.
9.17000, 182.
9.20000, 197.
9.23000, 167.
9.26000, 180.
9.29000, 153.
9.32000, 160.
9.35000, 170.
9.38000, 133.
9.41000, 149.
9.44000, 136.
9.47000, 157.
9.50000, 169.
9.53000, 146.
9.56000, 175.
9.59000, 166.
9.62000, 149.
9.65000, 155.
9.68000, 156.
9.71000, 132.
9.74000, 149.
9.77000, 167.
9.80000, 138.
9.83000, 151.
9.86000, 149.
9.89000, 146.
9.92000, 132.
9.95000, 130.
9.98000, 136.
10.01000, 135.
10.04000, 140.
10.07000, 148.
10.10000, 147.
10.13000, 147.
10.16000, 148.
10.19000, 151.
10.22000, 131.
10.25000, 156.
10.28000, 179.
10.31000, 209.
10.34000, 251.
10.37000, 289.
10.40000, 459.
10.43000, 654.
10.46000, 892.
10.49000, 1156.
10.52000, 1294.
10.55000, 1317.
10.58000, 1261.
10.61000, 965.
10.64000, 671.
10.67000, 490.
10.70000, 288.
10.73000, 200.
10.76000, 182.
10.79000, 159.
10.82000, 171.
10.85000, 163.
10.88000, 164.
10.91000, 154.
10.94000, 160.
10.97000, 175.
11.00000, 137.
11.03000, 163.
11.06000, 165.
11.09000, 176.
11.12000, 179.
11.15000, 200.
11.18000, 221.
11.21000, 200.
11.24000, 220.
11.27000, 193.
11.30000, 219.
11.33000, 226.
11.36000, 175.
11.39000, 166.
11.42000, 166.
11.45000, 172.
11.48000, 168.
11.51000, 159.
11.54000, 162.
11.57000, 146.
11.60000, 193.
11.63000, 164.
11.66000, 152.
11.69000, 147.
11.72000, 173.
11.75000, 144.
11.78000, 168.
11.81000, 166.
11.84000, 176.
11.87000, 200.
11.90000, 169.
11.93000, 170.
11.96000, 190.
11.99000, 177.
12.02000, 187.
12.05000, 194.
12.08000, 185.
12.11000, 193.
12.14000, 196.
12.17000, 206.
12.20000, 210.
12.23000, 233.
12.26000, 217.
12.29000, 249.
12.32000, 229.
12.35000, 257.
12.38000, 250.
12.41000, 275.
12.44000, 329.
12.47000, 442.
12.50000, 678.
12.53000, 887.
12.56000, 1098.
12.59000, 1240.
12.62000, 1278.
12.65000, 1151.
12.68000, 908.
12.71000, 669.
12.74000, 497.
12.77000, 391.
12.80000, 334.
12.83000, 265.
12.86000, 271.
12.89000, 239.
12.92000, 228.
12.95000, 230.
12.98000, 207.
13.01000, 217.
13.04000, 207.
13.07000, 191.
13.10000, 200.
13.13000, 184.
13.16000, 169.
13.19000, 164.
13.22000, 212.
13.25000, 230.
13.28000, 225.
13.31000, 260.
13.34000, 269.
13.37000, 240.
13.40000, 263.
13.43000, 234.
13.46000, 220.
13.49000, 211.
13.52000, 186.
13.55000, 176.
13.58000, 176.
13.61000, 173.
13.64000, 198.
13.67000, 155.
13.70000, 173.
13.73000, 182.
13.76000, 182.
13.79000, 195.
13.82000, 173.
13.85000, 151.
13.88000, 188.
13.91000, 146.
13.94000, 182.
13.97000, 209.
14.00000, 219.
14.03000, 217.
14.06000, 310.
14.09000, 301.
14.12000, 298.
14.15000, 319.
14.18000, 299.
14.21000, 252.
14.24000, 230.
14.27000, 225.
14.30000, 207.
14.33000, 183.
14.36000, 171.
14.39000, 177.
14.42000, 149.
14.45000, 152.
14.48000, 189.
14.51000, 194.
14.54000, 187.
14.57000, 187.
14.60000, 206.
14.63000, 199.
14.66000, 283.
14.69000, 314.
14.72000, 349.
14.75000, 339.
14.78000, 342.
14.81000, 314.
14.84000, 281.
14.87000, 258.
14.90000, 237.
14.93000, 233.
14.96000, 215.
14.99000, 209.
15.02000, 213.
15.05000, 207.
15.08000, 217.
15.11000, 211.
15.14000, 211.
15.17000, 207.
15.20000, 235.
15.23000, 195.
15.26000, 208.
15.29000, 200.
15.32000, 149.
15.35000, 165.
15.38000, 186.
15.41000, 170.
15.44000, 156.
15.47000, 172.
15.50000, 190.
15.53000, 212.
15.56000, 217.
15.59000, 240.
15.62000, 268.
15.65000, 301.
15.68000, 383.
15.71000, 410.
15.74000, 386.
15.77000, 416.
15.80000, 401.
15.83000, 314.
15.86000, 282.
15.89000, 253.
15.92000, 191.
15.95000, 172.
15.98000, 155.
16.01000, 157.
16.04000, 142.
16.07000, 139.
16.10000, 179.
16.13000, 174.
16.16000, 168.
16.19000, 171.
16.22000, 136.
16.25000, 162.
16.28000, 151.
16.31000, 153.
16.34000, 152.
16.37000, 151.
16.40000, 162.
16.43000, 160.
16.46000, 159.
16.49000, 174.
16.52000, 157.
16.55000, 185.
16.58000, 159.
16.61000, 161.
16.64000, 190.
16.67000, 183.
16.70000, 175.
16.73000, 171.
16.76000, 181.
16.79000, 133.
16.82000, 158.
16.85000, 136.
16.88000, 134.
16.91000, 184.
16.94000, 172.
16.97000, 146.
17.00000, 175.
17.03000, 173.
17.06000, 153.
17.09000, 185.
17.12000, 163.
17.15000, 177.
17.18000, 149.
17.21000, 183.
17.24000, 181.
17.27000, 168.
17.30000, 162.
17.33000, 175.
17.36000, 181.
17.39000, 152.
17.42000, 212.
17.45000, 174.
17.48000, 181.
17.51000, 178.
17.54000, 180.
17.57000, 207.
17.60000, 231.
17.63000, 234.
17.66000, 207.
17.69000, 221.
17.72000, 231.
17.75000, 197.
17.78000, 206.
17.81000, 224.
17.84000, 216.
17.87000, 179.
17.90000, 206.
17.93000, 191.
17.96000, 242.
17.99000, 275.
18.02000, 280.
18.05000, 239.
18.08000, 260.
18.11000, 286.
18.14000, 261.
18.17000, 282.
18.20000, 294.
18.23000, 320.
18.26000, 325.
18.29000, 388.
18.32000, 389.
18.35000, 393.
18.38000, 447.
18.41000, 456.
18.44000, 519.
18.47000, 576.
18.50000, 596.
18.53000, 650.
18.56000, 687.
18.59000, 800.
18.62000, 833.
18.65000, 887.
18.68000, 840.
18.71000, 934.
18.74000, 943.
18.77000, 958.
18.80000, 974.
18.83000, 984.
18.86000, 917.
18.89000, 870.
18.92000, 892.
18.95000, 835.
18.98000, 789.
19.01000, 763.
19.04000, 690.
19.07000, 660.
19.10000, 566.
19.13000, 586.
19.16000, 505.
19.19000, 449.
19.22000, 408.
19.25000, 392.
19.28000, 391.
19.31000, 394.
19.34000, 344.
19.37000, 294.
19.40000, 309.
19.43000, 277.
19.46000, 225.
19.49000, 259.
19.52000, 245.
19.55000, 246.
19.58000, 229.
19.61000, 199.
19.64000, 192.
19.67000, 201.
19.70000, 181.
19.73000, 203.
19.76000, 197.
19.79000, 208.
19.82000, 182.
19.85000, 202.
19.88000, 214.
19.91000, 252.
19.94000, 294.
19.97000, 330.
20.00000, 395.
20.03000, 450.
20.06000, 486.
20.09000, 525.
20.12000, 636.
20.15000, 613.
20.18000, 558.
20.21000, 522.
20.24000, 529.
20.27000, 396.
20.30000, 324.
20.33000, 285.
20.36000, 248.
20.39000, 196.
20.42000, 170.
20.45000, 156.
20.48000, 161.
20.51000, 164.
20.54000, 169.
20.57000, 189.
20.60000, 181.
20.63000, 181.
20.66000, 191.
20.69000, 213.
20.72000, 242.
20.75000, 225.
20.78000, 244.
20.81000, 256.
20.84000, 229.
20.87000, 237.
20.90000, 260.
20.93000, 283.
20.96000, 244.
20.99000, 267.
21.02000, 278.
21.05000, 275.
21.08000, 249.
21.11000, 263.
21.14000, 268.
21.17000, 255.
21.20000, 240.
21.23000, 227.
21.26000, 243.
21.29000, 205.
21.32000, 205.
21.35000, 180.
21.38000, 188.
21.41000, 165.
21.44000, 180.
21.47000, 150.
21.50000, 157.
21.53000, 171.
21.56000, 139.
21.59000, 146.
21.62000, 157.
21.65000, 141.
21.68000, 135.
21.71000, 149.
21.74000, 107.
21.77000, 125.
21.80000, 118.
21.83000, 106.
21.86000, 119.
21.89000, 106.
21.92000, 125.
21.95000, 111.
21.98000, 89.
22.01000, 106.
22.04000, 76.
22.07000, 97.
22.10000, 107.
22.13000, 105.
22.16000, 98.
22.19000, 103.
22.22000, 85.
22.25000, 93.
22.28000, 98.
22.31000, 85.
22.34000, 97.
22.37000, 74.
22.40000, 114.
22.43000, 83.
22.46000, 91.
22.49000, 95.
22.52000, 129.
22.55000, 127.
22.58000, 117.
22.61000, 131.
22.64000, 134.
22.67000, 137.
22.70000, 140.
22.73000, 144.
22.76000, 124.
22.79000, 130.
22.82000, 110.
22.85000, 104.
22.88000, 90.
22.91000, 99.
22.94000, 80.
22.97000, 82.
23.00000, 88.
23.03000, 55.
23.06000, 80.
23.09000, 85.
23.12000, 81.
23.15000, 87.
23.18000, 78.
23.21000, 91.
23.24000, 77.
23.27000, 89.
23.30000, 76.
23.33000, 83.
23.36000, 66.
23.39000, 81.
23.42000, 80.
23.45000, 81.
23.48000, 95.
23.51000, 80.
23.54000, 79.
23.57000, 71.
23.60000, 87.
23.63000, 75.
23.66000, 82.
23.69000, 82.
23.72000, 75.
23.75000, 71.
23.78000, 70.
23.81000, 72.
23.84000, 76.
23.87000, 76.
23.90000, 68.
23.93000, 71.
23.96000, 76.
23.99000, 65.
24.02000, 68.
24.05000, 82.
24.08000, 71.
24.11000, 78.
24.14000, 65.
24.17000, 66.
24.20000, 70.
24.23000, 73.
24.26000, 57.
24.29000, 67.
24.32000, 63.
24.35000, 57.
24.38000, 64.
24.41000, 71.
24.44000, 63.
24.47000, 60.
24.50000, 57.
24.53000, 75.
24.56000, 69.
24.59000, 76.
24.62000, 75.
24.65000, 72.
24.68000, 68.
24.71000, 63.
24.74000, 66.
24.77000, 76.
24.80000, 77.
24.83000, 72.
24.86000, 66.
24.89000, 74.
24.92000, 77.
24.95000, 84.
24.98000, 86.
25.01000, 75.
25.04000, 69.
25.07000, 84.
25.10000, 57.
25.13000, 75.
25.16000, 62.
25.19000, 61.
25.22000, 89.
25.25000, 71.
25.28000, 73.
25.31000, 61.
25.34000, 73.
25.37000, 64.
25.40000, 73.
25.43000, 60.
25.46000, 74.
25.49000, 71.
25.52000, 65.
25.55000, 65.
25.58000, 55.
25.61000, 69.
25.64000, 67.
25.67000, 59.
25.70000, 59.
25.73000, 59.
25.76000, 62.
25.79000, 58.
25.82000, 60.
25.85000, 54.
25.88000, 55.
25.91000, 69.
25.94000, 53.
25.97000, 60.
26.00000, 67.
26.03000, 55.
26.06000, 58.
26.09000, 59.
26.12000, 59.
26.15000, 61.
26.18000, 49.
26.21000, 55.
26.24000, 61.
26.27000, 65.
26.30000, 69.
26.33000, 64.
26.36000, 53.
26.39000, 57.
26.42000, 59.
26.45000, 64.
26.48000, 65.
26.51000, 62.
26.54000, 70.
26.57000, 60.
26.60000, 68.
26.63000, 60.
26.66000, 58.
26.69000, 51.
26.72000, 50.
26.75000, 61.
26.78000, 45.
26.81000, 55.
26.84000, 47.
26.87000, 43.
26.90000, 46.
26.93000, 43.
26.96000, 62.
26.99000, 58.
27.02000, 50.
27.05000, 52.
27.08000, 47.
27.11000, 57.
27.14000, 56.
27.17000, 55.
27.20000, 69.
27.23000, 57.
27.26000, 58.
27.29000, 61.
27.32000, 65.
27.35000, 51.
27.38000, 55.
27.41000, 53.
27.44000, 48.
27.47000, 48.
27.50000, 34.
27.53000, 47.
27.56000, 49.
27.59000, 37.
27.62000, 58.
27.65000, 54.
27.68000, 57.
27.71000, 52.
27.74000, 46.
27.77000, 51.
27.80000, 53.
27.83000, 39.
27.86000, 60.
27.89000, 47.
27.92000, 51.
27.95000, 57.
27.98000, 52.
28.01000, 57.
28.04000, 47.
28.07000, 39.
28.10000, 49.
28.13000, 27.
28.16000, 48.
28.19000, 49.
28.22000, 47.
28.25000, 48.
28.28000, 40.
28.31000, 56.
28.34000, 40.
28.37000, 46.
28.40000, 53.
28.43000, 38.
28.46000, 40.
28.49000, 49.
28.52000, 60.
28.55000, 52.
28.58000, 39.
28.61000, 45.
28.64000, 52.
28.67000, 46.
28.70000, 42.
28.73000, 46.
28.76000, 37.
28.79000, 45.
28.82000, 39.
28.85000, 31.
28.88000, 43.
28.91000, 43.
28.94000, 33.
28.97000, 44.
29.00000, 42.
29.03000, 51.
29.06000, 39.
29.09000, 43.
29.12000, 38.
29.15000, 37.
29.18000, 38.
29.21000, 35.
29.24000, 36.
29.27000, 33.
29.30000, 35.
29.33000, 44.
29.36000, 32.
29.39000, 51.
29.42000, 46.
29.45000, 49.
29.48000, 46.
29.51000, 32.
29.54000, 37.
29.57000, 43.
29.60000, 37.
29.63000, 39.
29.66000, 28.
29.69000, 42.
29.72000, 43.
29.75000, 36.
29.78000, 49.
29.81000, 29.
29.84000, 38.
29.87000, 40.
29.90000, 38.
29.93000, 34.
29.96000, 41.
29.99000, 35.
30.02000, 43.
30.05000, 28.
30.08000, 38.
30.11000, 51.
30.14000, 40.
30.17000, 42.
30.20000, 47.
30.23000, 45.
30.26000, 33.
30.29000, 33.
30.32000, 40.
30.35000, 36.
30.38000, 36.
30.41000, 42.
30.44000, 31.
30.47000, 40.
30.50000, 35.
30.53000, 27.
30.56000, 24.
30.59000, 39.
30.62000, 32.
30.65000, 40.
30.68000, 40.
30.71000, 36.
30.74000, 30.
30.77000, 27.
30.80000, 36.
30.83000, 21.
30.86000, 39.
30.89000, 34.
30.92000, 29.
30.95000, 34.
30.98000, 29.
31.01000, 37.
31.04000, 36.
31.07000, 42.
31.10000, 42.
31.13000, 28.
31.16000, 33.
31.19000, 30.
31.22000, 36.
31.25000, 36.
31.28000, 26.
31.31000, 24.
31.34000, 27.
31.37000, 33.
31.40000, 30.
31.43000, 33.
31.46000, 28.
31.49000, 27.
31.52000, 30.
31.55000, 30.
31.58000, 26.
31.61000, 38.
31.64000, 29.
31.67000, 37.
31.70000, 39.
31.73000, 31.
31.76000, 31.
31.79000, 35.
31.82000, 32.
31.85000, 26.
31.88000, 38.
31.91000, 34.
31.94000, 43.
31.97000, 27.
32.00000, 35.
32.03000, 37.
32.06000, 38.
32.09000, 36.
32.12000, 31.
32.15000, 41.
32.18000, 34.
32.21000, 32.
32.24000, 26.
32.27000, 34.
32.30000, 28.
32.33000, 34.
32.36000, 45.
32.39000, 33.
32.42000, 21.
32.45000, 35.
32.48000, 24.
32.51000, 23.
32.54000, 43.
32.57000, 23.
32.60000, 23.
32.63000, 25.
32.66000, 25.
32.69000, 29.
32.72000, 17.
32.75000, 25.
32.78000, 26.
32.81000, 36.
32.84000, 25.
32.87000, 27.
32.90000, 23.
32.93000, 35.
32.96000, 22.
32.99000, 17.
33.02000, 24.
33.05000, 22.
33.08000, 20.
33.11000, 27.
33.14000, 42.
33.17000, 14.
33.20000, 30.
33.23000, 26.
33.26000, 21.
33.29000, 18.
33.32000, 17.
33.35000, 20.
33.38000, 21.
33.41000, 23.
33.44000, 21.
33.47000, 23.
33.50000, 27.
33.53000, 19.
33.56000, 24.
33.59000, 25.
33.62000, 18.
33.65000, 19.
33.68000, 22.
33.71000, 28.
33.74000, 17.
33.77000, 30.
33.80000, 20.
33.83000, 18.
33.86000, 26.
33.89000, 27.
33.92000, 23.
33.95000, 24.
33.98000, 32.
34.01000, 31.
34.04000, 21.
34.07000, 23.
34.10000, 15.
34.13000, 17.
34.16000, 20.
34.19000, 20.
34.22000, 16.
34.25000, 18.
34.28000, 27.
34.31000, 22.
34.34000, 20.
34.37000, 18.
34.40000, 14.
34.43000, 19.
34.46000, 13.
34.49000, 21.
34.52000, 17.
34.55000, 15.
34.58000, 20.
34.61000, 18.
34.64000, 12.
34.67000, 26.
34.70000, 24.
34.73000, 16.
34.76000, 16.
34.79000, 21.
34.82000, 20.
34.85000, 28.
34.88000, 20.
34.91000, 18.
34.94000, 26.
34.97000, 10.
35.00000, 21.
35.03000, 21.
35.06000, 16.
35.09000, 17.
35.12000, 24.
35.15000, 15.
35.18000, 21.
35.21000, 19.
35.24000, 11.
35.27000, 17.
35.30000, 17.
35.33000, 12.
35.36000, 14.
35.39000, 16.
35.42000, 18.
35.45000, 18.
35.48000, 16.
35.51000, 20.
35.54000, 15.
35.57000, 17.
35.60000, 14.
35.63000, 13.
35.66000, 18.
35.69000, 12.
35.72000, 13.
35.75000, 8.
35.78000, 16.
35.81000, 14.
35.84000, 14.
35.87000, 17.
35.90000, 17.
35.93000, 11.
35.96000, 11.
35.99000, 20.
36.02000, 15.
36.05000, 20.
36.08000, 18.
36.11000, 18.
36.14000, 11.
36.17000, 15.
36.20000, 12.
36.23000, 23.
36.26000, 13.
36.29000, 19.
36.32000, 13.
36.35000, 12.
36.38000, 18.
36.41000, 17.
36.44000, 13.
36.47000, 15.
36.50000, 11.
36.53000, 14.
36.56000, 16.
36.59000, 18.
36.62000, 11.
36.65000, 13.
36.68000, 13.
36.71000, 13.
36.74000, 15.
36.77000, 15.
36.80000, 7.
36.83000, 9.
36.86000, 23.
36.89000, 13.
36.92000, 12.
36.95000, 15.
36.98000, 16.
37.01000, 8.
37.04000, 11.
37.07000, 15.
37.10000, 11.
37.13000, 16.
37.16000, 14.
37.19000, 12.
37.22000, 10.
37.25000, 8.
37.28000, 13.
37.31000, 11.
37.34000, 10.
37.37000, 14.
37.40000, 10.
37.43000, 15.
37.46000, 7.
37.49000, 11.
37.52000, 13.
37.55000, 13.
37.58000, 6.
37.61000, 7.
37.64000, 11.
37.67000, 12.
37.70000, 3.
37.73000, 16.
37.76000, 6.
37.79000, 5.
37.82000, 8.
37.85000, 12.
37.88000, 11.
37.91000, 10.
37.94000, 14.
37.97000, 14.
38.00000, 11.
38.03000, 4.
38.06000, 9.
38.09000, 14.
38.12000, 7.
38.15000, 8.
38.18000, 15.
38.21000, 7.
38.24000, 8.
38.27000, 8.
38.30000, 10.
38.33000, 8.
38.36000, 5.
38.39000, 8.
38.42000, 13.
38.45000, 9.
38.48000, 11.
38.51000, 13.
38.54000, 6.
38.57000, 15.
38.60000, 7.
38.63000, 10.
38.66000, 5.
38.69000, 9.
38.72000, 8.
38.75000, 8.
38.78000, 5.
38.81000, 10.
38.84000, 5.
38.87000, 3.
38.90000, 8.
38.93000, 16.
38.96000, 5.
38.99000, 5.
39.02000, 7.
39.05000, 4.
39.08000, 8.
39.11000, 3.
39.14000, 5.
39.17000, 8.
39.20000, 6.
39.23000, 6.
39.26000, 6.
39.29000, 8.
39.32000, 6.
39.35000, 6.
39.38000, 7.
39.41000, 5.
39.44000, 10.
39.47000, 4.
39.50000, 8.
39.53000, 4.
39.56000, 11.
39.59000, 11.
39.62000, 6.
39.65000, 4.
39.68000, 10.
39.71000, 6.
39.74000, 8.
39.77000, 6.
39.80000, 4.
39.83000, 8.
39.86000, 8.
39.89000, 6.
39.92000, 5.
39.95000, 4.
39.98000, 7.
40.01000, 3.
40.04000, 6.
40.07000, 7.
40.10000, 4.
40.13000, 6.
40.16000, 5.
40.19000, 7.
40.22000, 7.
40.25000, 1.
40.28000, 3.
40.31000, 3.
40.34000, 2.
40.37000, 3.
40.40000, 3.
40.43000, 1.
40.46000, 1.
40.49000, 1.
40.52000, 3.
40.55000, 0.
#ENDOFDATA   :