File: sample_data/data/Spectrum value from standard/Nist2587/Spectrum 36.txt
#FORMAT      : EMSA/MAS Spectral Data File
#VERSION     : 1.0
#TITLE       : Spectrum 36
#DATE        : 21-AUG-2025
#TIME        : 15:40
#OWNER       : XGT7200
#NPOINTS     : 4096.
#NCOLUMNS    : 1.
#XUNITS      : keV
#YUNITS      : counts
#DATATYPE    : XY
#XPERCHAN    : 0.0100000
#OFFSET      : -0.400000
#SIGNALTYPE  : EDS
#CHOFFSET    : 40.0000
#LIVETIME    : 30
#REALTIME    : 39.8012
#BEAMKV      : 50.0000
#PROBECUR    : 677000.
#MAGCAM      : 100.000
#XTILTSTGE   : 0.0
#AZIMANGLE   : 0.0
#ELEVANGLE   : 45.0
#XPOSITION mm: 0.0000
#YPOSITION mm: 0.0000
#ZPOSITION mm: 0.0000
##OXINSTPT   : 4
##OXINSTSTROB: 71.96
#SPECTRUM    : Spectral Data Starts Here
-0.40000, 0.
-0.37000, 0.
-0.34000, 0.
-0.31000, 0.
-0.28000, 0.
-0.25000, 0.
-0.22000, 0.
-0.19000, 0.
-0.16000, 0.
-0.13000, 0.
-0.10000, 0.
-0.07000, 0.
-0.04000, 0.
-0.01000, 0.
0.02000, 0.
0.05000, 0.
0.08000, 0.
0.11000, 0.
0.14000, 0.
0.17000, 0.
0.20000, 0.
0.23000, 0.
0.26000, 0.
0.29000, 0.
0.32000, 0.
0.35000, 2.
0.38000, 11.
0.41000, 24.
0.44000, 49.
0.47000, 45.
0.50000, 44.
0.53000, 47.
0.56000, 46.
0.59000, 38.
0.62000, 39.
0.65000, 46.
0.68000, 38.
0.71000, 44.
0.74000, 42.
0.77000, 46.
0.80000, 41.
0.83000, 41.
0.86000, 40.
0.89000, 40.
0.92000, 33.
0.95000, 37.
0.98000, 49.
1.01000, 38.
1.04000, 41.
1.07000, 51.
1.10000, 43.
1.13000, 47.
1.16000, 42.
1.19000, 40.
1.22000, 49.
1.25000, 66.
1.28000, 68.
1.31000, 43.
1.34000, 35.
1.37000, 35.
1.40000, 96.
1.43000, 244.
1.46000, 573.
1.49000, 734.
1.52000, 647.
1.55000, 328.
1.58000, 133.
1.61000, 129.
1.64000, 396.
1.67000, 1574.
1.70000, 4300.
1.73000, 7081.
1.76000, 7538.
1.79000, 4670.
1.82000, 1983.
1.85000, 645.
1.88000, 337.
1.91000, 109.
1.94000, 69.
1.97000, 64.
2.00000, 66.
2.03000, 83.
2.06000, 47.
2.09000, 52.
2.12000, 34.
2.15000, 33.
2.18000, 28.
2.21000, 28.
2.24000, 46.
2.27000, 63.
2.30000, 100.
2.33000, 137.
2.36000, 140.
2.39000, 116.
2.42000, 97.
2.45000, 103.
2.48000, 70.
2.51000, 58.
2.54000, 48.
2.57000, 62.
2.60000, 85.
2.63000, 173.
2.66000, 317.
2.69000, 410.
2.72000, 410.
2.75000, 332.
2.78000, 214.
2.81000, 226.
2.84000, 283.
2.87000, 226.
2.90000, 166.
2.93000, 122.
2.96000, 92.
2.99000, 52.
3.02000, 52.
3.05000, 48.
3.08000, 34.
3.11000, 27.
3.14000, 36.
3.17000, 37.
3.20000, 79.
3.23000, 154.
3.26000, 344.
3.29000, 618.
3.32000, 663.
3.35000, 588.
3.38000, 345.
3.41000, 156.
3.44000, 66.
3.47000, 65.
3.50000, 65.
3.53000, 88.
3.56000, 127.
3.59000, 191.
3.62000, 359.
3.65000, 463.
3.68000, 622.
3.71000, 653.
3.74000, 417.
3.77000, 243.
3.80000, 86.
3.83000, 49.
3.86000, 22.
3.89000, 27.
3.92000, 43.
3.95000, 72.
3.98000, 91.
4.01000, 103.
4.04000, 106.
4.07000, 67.
4.10000, 61.
4.13000, 34.
4.16000, 27.
4.19000, 33.
4.22000, 29.
4.25000, 26.
4.28000, 37.
4.31000, 24.
4.34000, 39.
4.37000, 54.
4.40000, 104.
4.43000, 180.
4.46000, 327.
4.49000, 484.
4.52000, 492.
4.55000, 391.
4.58000, 270.
4.61000, 136.
4.64000, 97.
4.67000, 72.
4.70000, 87.
4.73000, 77.
4.76000, 66.
4.79000, 74.
4.82000, 89.
4.85000, 82.
4.88000, 121.
4.91000, 134.
4.94000, 159.
4.97000, 110.
5.00000, 99.
5.03000, 85.
5.06000, 49.
5.09000, 43.
5.12000, 51.
5.15000, 54.
5.18000, 44.
5.21000, 59.
5.24000, 57.
5.27000, 60.
5.30000, 61.
5.33000, 67.
5.36000, 74.
5.39000, 78.
5.42000, 85.
5.45000, 81.
5.48000, 71.
5.51000, 60.
5.54000, 78.
5.57000, 64.
5.60000, 62.
5.63000, 57.
5.66000, 59.
5.69000, 64.
5.72000, 66.
5.75000, 53.
5.78000, 80.
5.81000, 126.
5.84000, 182.
5.87000, 235.
5.90000, 264.
5.93000, 218.
5.96000, 175.
5.99000, 117.
6.02000, 79.
6.05000, 85.
6.08000, 70.
6.11000, 77.
6.14000, 71.
6.17000, 123.
6.20000, 160.
6.23000, 376.
6.26000, 906.
6.29000, 2292.
6.32000, 4825.
6.35000, 8074.
6.38000, 10696.
6.41000, 10974.
6.44000, 9079.
6.47000, 5836.
6.50000, 2980.
6.53000, 1281.
6.56000, 463.
6.59000, 220.
6.62000, 132.
6.65000, 110.
6.68000, 96.
6.71000, 100.
6.74000, 85.
6.77000, 89.
6.80000, 93.
6.83000, 132.
6.86000, 117.
6.89000, 218.
6.92000, 337.
6.95000, 550.
6.98000, 1033.
7.01000, 1462.
7.04000, 1753.
7.07000, 1762.
7.10000, 1442.
7.13000, 951.
7.16000, 554.
7.19000, 250.
7.22000, 153.
7.25000, 98.
7.28000, 80.
7.31000, 87.
7.34000, 85.
7.37000, 85.
7.40000, 98.
7.43000, 85.
7.46000, 94.
7.49000, 94.
7.52000, 81.
7.55000, 85.
7.58000, 69.
7.61000, 69.
7.64000, 56.
7.67000, 91.
7.70000, 66.
7.73000, 83.
7.76000, 83.
7.79000, 95.
7.82000, 85.
7.85000, 92.
7.88000, 111.
7.91000, 137.
7.94000, 123.
7.97000, 161.
8.00000, 191.
8.03000, 225.
8.06000, 255.
8.09000, 221.
8.12000, 189.
8.15000, 164.
8.18000, 149.
8.21000, 128.
8.24000, 119.
8.27000, 131.
8.30000, 114.
8.33000, 111.
8.36000, 115.
8.39000, 99.
8.42000, 97.
8.45000, 109.
8.48000, 156.
8.51000, 181.
8.54000, 218.
8.57000, 272.
8.60000, 336.
8.63000, 328.
8.66000, 343.
8.69000, 247.
8.72000, 217.
8.75000, 173.
8.78000, 158.
8.81000, 120.
8.84000, 139.
8.87000, 139.
8.90000, 127.
8.93000, 156.
8.96000, 137.
8.99000, 140.
9.02000, 139.
9.05000, 166.
9.08000, 142.
9.11000, 170.
9.14000, 195.
9.17000, 165.
9.20000, 182.
9.23000, 172.
9.26000, 178.
9.29000, 157.
9.32000, 141.
9.35000, 151.
9.38000, 132.
9.41000, 135.
9.44000, 154.
9.47000, 162.
9.50000, 164.
9.53000, 187.
9.56000, 157.
9.59000, 196.
9.62000, 150.
9.65000, 179.
9.68000, 147.
9.71000, 154.
9.74000, 155.
9.77000, 131.
9.80000, 142.
9.83000, 141.
9.86000, 151.
9.89000, 158.
9.92000, 153.
9.95000, 156.
9.98000, 153.
10.01000, 134.
10.04000, 159.
10.07000, 131.
10.10000, 142.
10.13000, 159.
10.16000, 135.
10.19000, 135.
10.22000, 167.
10.25000, 157.
10.28000, 170.
10.31000, 208.
10.34000, 246.
10.37000, 313.
10.40000, 476.
10.43000, 686.
10.46000, 950.
10.49000, 1172.
10.52000, 1404.
10.55000, 1499.
10.58000, 1248.
10.61000, 1026.
10.64000, 695.
10.67000, 502.
10.70000, 323.
10.73000, 244.
10.76000, 190.
10.79000, 161.
10.82000, 165.
10.85000, 144.
10.88000, 158.
10.91000, 161.
10.94000, 148.
10.97000, 165.
11.00000, 156.
11.03000, 155.
11.06000, 162.
11.09000, 154.
11.12000, 164.
11.15000, 137.
11.18000, 144.
11.21000, 156.
11.24000, 165.
11.27000, 160.
11.30000, 170.
11.33000, 153.
11.36000, 190.
11.39000, 175.
11.42000, 202.
11.45000, 175.
11.48000, 166.
11.51000, 174.
11.54000, 165.
11.57000, 167.
11.60000, 145.
11.63000, 174.
11.66000, 134.
11.69000, 177.
11.72000, 149.
11.75000, 156.
11.78000, 160.
11.81000, 175.
11.84000, 147.
11.87000, 166.
11.90000, 151.
11.93000, 162.
11.96000, 188.
11.99000, 167.
12.02000, 163.
12.05000, 180.
12.08000, 186.
12.11000, 207.
12.14000, 197.
12.17000, 219.
12.20000, 227.
12.23000, 232.
12.26000, 232.
12.29000, 243.
12.32000, 235.
12.35000, 223.
12.38000, 242.
12.41000, 283.
12.44000, 377.
12.47000, 509.
12.50000, 653.
12.53000, 889.
12.56000, 1165.
12.59000, 1182.
12.62000, 1280.
12.65000, 1129.
12.68000, 1014.
12.71000, 753.
12.74000, 506.
12.77000, 417.
12.80000, 368.
12.83000, 278.
12.86000, 274.
12.89000, 235.
12.92000, 229.
12.95000, 210.
12.98000, 217.
13.01000, 235.
13.04000, 240.
13.07000, 189.
13.10000, 213.
13.13000, 170.
13.16000, 196.
13.19000, 208.
13.22000, 182.
13.25000, 187.
13.28000, 230.
13.31000, 219.
13.34000, 268.
13.37000, 259.
13.40000, 229.
13.43000, 219.
13.46000, 200.
13.49000, 196.
13.52000, 173.
13.55000, 185.
13.58000, 181.
13.61000, 176.
13.64000, 158.
13.67000, 166.
13.70000, 182.
13.73000, 146.
13.76000, 167.
13.79000, 185.
13.82000, 175.
13.85000, 182.
13.88000, 176.
13.91000, 164.
13.94000, 165.
13.97000, 169.
14.00000, 207.
14.03000, 236.
14.06000, 276.
14.09000, 304.
14.12000, 320.
14.15000, 304.
14.18000, 291.
14.21000, 257.
14.24000, 230.
14.27000, 215.
14.30000, 152.
14.33000, 186.
14.36000, 160.
14.39000, 175.
14.42000, 168.
14.45000, 156.
14.48000, 156.
14.51000, 176.
14.54000, 185.
14.57000, 202.
14.60000, 200.
14.63000, 219.
14.66000, 247.
14.69000, 311.
14.72000, 306.
14.75000, 355.
14.78000, 333.
14.81000, 329.
14.84000, 288.
14.87000, 271.
14.90000, 234.
14.93000, 256.
14.96000, 208.
14.99000, 245.
15.02000, 221.
15.05000, 205.
15.08000, 233.
15.11000, 188.
15.14000, 213.
15.17000, 240.
15.20000, 205.
15.23000, 187.
15.26000, 217.
15.29000, 159.
15.32000, 173.
15.35000, 170.
15.38000, 156.
15.41000, 146.
15.44000, 190.
15.47000, 161.
15.50000, 184.
15.53000, 190.
15.56000, 214.
15.59000, 270.
15.62000, 322.
15.65000, 364.
15.68000, 376.
15.71000, 479.
15.74000, 440.
15.77000, 430.
15.80000, 390.
15.83000, 381.
15.86000, 292.
15.89000, 228.
15.92000, 211.
15.95000, 178.
15.98000, 163.
16.01000, 159.
16.04000, 168.
16.07000, 185.
16.10000, 166.
16.13000, 156.
16.16000, 178.
16.19000, 160.
16.22000, 161.
16.25000, 168.
16.28000, 161.
16.31000, 160.
16.34000, 150.
16.37000, 162.
16.40000, 164.
16.43000, 174.
16.46000, 170.
16.49000, 166.
16.52000, 186.
16.55000, 172.
16.58000, 186.
16.61000, 173.
16.64000, 166.
16.67000, 171.
16.70000, 157.
16.73000, 173.
16.76000, 145.
16.79000, 155.
16.82000, 164.
16.85000, 162.
16.88000, 166.
16.91000, 166.
16.94000, 144.
16.97000, 162.
17.00000, 171.
17.03000, 156.
17.06000, 173.
17.09000, 166.
17.12000, 159.
17.15000, 161.
17.18000, 175.
17.21000, 144.
17.24000, 199.
17.27000, 166.
17.30000, 171.
17.33000, 148.
17.36000, 177.
17.39000, 180.
17.42000, 177.
17.45000, 189.
17.48000, 201.
17.51000, 201.
17.54000, 217.
17.57000, 201.
17.60000, 222.
17.63000, 262.
17.66000, 224.
17.69000, 230.
17.72000, 222.
17.75000, 202.
17.78000, 217.
17.81000, 220.
17.84000, 208.
17.87000, 214.
17.90000, 201.
17.93000, 249.
17.96000, 211.
17.99000, 215.
18.02000, 235.
18.05000, 233.
18.08000, 240.
18.11000, 250.
18.14000, 296.
18.17000, 277.
18.20000, 306.
18.23000, 291.
18.26000, 354.
18.29000, 362.
18.32000, 352.
18.35000, 417.
18.38000, 414.
18.41000, 458.
18.44000, 522.
18.47000, 560.
18.50000, 590.
18.53000, 683.
18.56000, 698.
18.59000, 794.
18.62000, 835.
18.65000, 824.
18.68000, 932.
18.71000, 936.
18.74000, 961.
18.77000, 924.
18.80000, 986.
18.83000, 1011.
18.86000, 903.
18.89000, 919.
18.92000, 903.
18.95000, 827.
18.98000, 797.
19.01000, 688.
19.04000, 676.
19.07000, 621.
19.10000, 566.
19.13000, 528.
19.16000, 505.
19.19000, 474.
19.22000, 447.
19.25000, 391.
19.28000, 367.
19.31000, 343.
19.34000, 331.
19.37000, 297.
19.40000, 265.
19.43000, 278.
19.46000, 248.
19.49000, 262.
19.52000, 237.
19.55000, 242.
19.58000, 206.
19.61000, 212.
19.64000, 193.
19.67000, 197.
19.70000, 205.
19.73000, 184.
19.76000, 196.
19.79000, 191.
19.82000, 182.
19.85000, 205.
19.88000, 222.
19.91000, 244.
19.94000, 270.
19.97000, 321.
20.00000, 356.
20.03000, 432.
20.06000, 489.
20.09000, 590.
20.12000, 545.
20.15000, 587.
20.18000, 572.
20.21000, 532.
20.24000, 436.
20.27000, 397.
20.30000, 317.
20.33000, 278.
20.36000, 250.
20.39000, 190.
20.42000, 201.
20.45000, 164.
20.48000, 182.
20.51000, 171.
20.54000, 183.
20.57000, 155.
20.60000, 190.
20.63000, 200.
20.66000, 202.
20.69000, 207.
20.72000, 201.
20.75000, 234.
20.78000, 214.
20.81000, 233.
20.84000, 236.
20.87000, 260.
20.90000, 262.
20.93000, 273.
20.96000, 263.
20.99000, 233.
21.02000, 258.
21.05000, 250.
21.08000, 253.
21.11000, 228.
21.14000, 234.
21.17000, 262.
21.20000, 198.
21.23000, 226.
21.26000, 202.
21.29000, 189.
21.32000, 200.
21.35000, 192.
21.38000, 173.
21.41000, 168.
21.44000, 184.
21.47000, 154.
21.50000, 157.
21.53000, 152.
21.56000, 120.
21.59000, 136.
21.62000, 145.
21.65000, 127.
21.68000, 122.
21.71000, 118.
21.74000, 125.
21.77000, 112.
21.80000, 125.
21.83000, 109.
21.86000, 123.
21.89000, 99.
21.92000, 124.
21.95000, 105.
21.98000, 101.
22.01000, 110.
22.04000, 87.
22.07000, 106.
22.10000, 105.
22.13000, 98.
22.16000, 101.
22.19000, 90.
22.22000, 87.
22.25000, 91.
22.28000, 89.
22.31000, 72.
22.34000, 80.
22.37000, 85.
22.40000, 80.
22.43000, 89.
22.46000, 95.
22.49000, 94.
22.52000, 105.
22.55000, 113.
22.58000, 134.
22.61000, 136.
22.64000, 138.
22.67000, 128.
22.70000, 129.
22.73000, 138.
22.76000, 120.
22.79000, 124.
22.82000, 114.
22.85000, 100.
22.88000, 99.
22.91000, 103.
22.94000, 76.
22.97000, 85.
23.00000, 74.
23.03000, 82.
23.06000, 78.
23.09000, 91.
23.12000, 80.
23.15000, 89.
23.18000, 77.
23.21000, 74.
23.24000, 76.
23.27000, 68.
23.30000, 88.
23.33000, 72.
23.36000, 73.
23.39000, 70.
23.42000, 82.
23.45000, 87.
23.48000, 60.
23.51000, 72.
23.54000, 67.
23.57000, 66.
23.60000, 75.
23.63000, 72.
23.66000, 94.
23.69000, 76.
23.72000, 62.
23.75000, 50.
23.78000, 64.
23.81000, 64.
23.84000, 79.
23.87000, 63.
23.90000, 80.
23.93000, 63.
23.96000, 71.
23.99000, 74.
24.02000, 62.
24.05000, 67.
24.08000, 56.
24.11000, 64.
24.14000, 65.
24.17000, 73.
24.20000, 78.
24.23000, 83.
24.26000, 85.
24.29000, 74.
24.32000, 71.
24.35000, 65.
24.38000, 67.
24.41000, 70.
24.44000, 63.
24.47000, 64.
24.50000, 67.
24.53000, 77.
24.56000, 64.
24.59000, 76.
24.62000, 66.
24.65000, 63.
24.68000, 70.
24.71000, 68.
24.74000, 65.
24.77000, 59.
24.80000, 73.
24.83000, 49.
24.86000, 63.
24.89000, 60.
24.92000, 77.
24.95000, 70.
24.98000, 83.
25.01000, 66.
25.04000, 85.
25.07000, 77.
25.10000, 85.
25.13000, 78.
25.16000, 83.
25.19000, 72.
25.22000, 69.
25.25000, 70.
25.28000, 81.
25.31000, 83.
25.34000, 56.
25.37000, 68.
25.40000, 73.
25.43000, 60.
25.46000, 63.
25.49000, 67.
25.52000, 66.
25.55000, 70.
25.58000, 69.
25.61000, 50.
25.64000, 68.
25.67000, 81.
25.70000, 75.
25.73000, 69.
25.76000, 54.
25.79000, 65.
25.82000, 65.
25.85000, 65.
25.88000, 57.
25.91000, 72.
25.94000, 63.
25.97000, 64.
26.00000, 57.
26.03000, 51.
26.06000, 50.
26.09000, 52.
26.12000, 54.
26.15000, 68.
26.18000, 52.
26.21000, 51.
26.24000, 66.
26.27000, 61.
26.30000, 55.
26.33000, 59.
26.36000, 56.
26.39000, 56.
26.42000, 60.
26.45000, 53.
26.48000, 77.
26.51000, 58.
26.54000, 55.
26.57000, 74.
26.60000, 50.
26.63000, 56.
26.66000, 53.
26.69000, 54.
26.72000, 66.
26.75000, 56.
26.78000, 46.
26.81000, 54.
26.84000, 51.
26.87000, 52.
26.90000, 55.
26.93000, 53.
26.96000, 62.
26.99000, 41.
27.02000, 60.
27.05000, 59.
27.08000, 51.
27.11000, 50.
27.14000, 60.
27.17000, 48.
27.20000, 67.
27.23000, 51.
27.26000, 59.
27.29000, 33.
27.32000, 58.
27.35000, 54.
27.38000, 53.
27.41000, 55.
27.44000, 55.
27.47000, 57.
27.50000, 60.
27.53000, 48.
27.56000, 42.
27.59000, 57.
27.62000, 48.
27.65000, 47.
27.68000, 44.
27.71000, 55.
27.74000, 47.
27.77000, 41.
27.80000, 58.
27.83000, 41.
27.86000, 45.
27.89000, 43.
27.92000, 40.
27.95000, 45.
27.98000, 39.
28.01000, 38.
28.04000, 52.
28.07000, 41.
28.10000, 42.
28.13000, 52.
28.16000, 46.
28.19000, 47.
28.22000, 53.
28.25000, 37.
28.28000, 47.
28.31000, 47.
28.34000, 45.
28.37000, 45.
28.40000, 44.
28.43000, 43.
28.46000, 35.
28.49000, 52.
28.52000, 60.
28.55000, 41.
28.58000, 39.
28.61000, 45.
28.64000, 46.
28.67000, 39.
28.70000, 48.
28.73000, 53.
28.76000, 38.
28.79000, 49.
28.82000, 43.
28.85000, 35.
28.88000, 52.
28.91000, 41.
28.94000, 50.
28.97000, 36.
29.00000, 65.
29.03000, 41.
29.06000, 37.
29.09000, 36.
29.12000, 38.
29.15000, 42.
29.18000, 47.
29.21000, 39.
29.24000, 38.
29.27000, 43.
29.30000, 51.
29.33000, 46.
29.36000, 33.
29.39000, 35.
29.42000, 35.
29.45000, 44.
29.48000, 38.
29.51000, 56.
29.54000, 44.
29.57000, 34.
29.60000, 46.
29.63000, 29.
29.66000, 38.
29.69000, 42.
29.72000, 34.
29.75000, 39.
29.78000, 37.
29.81000, 32.
29.84000, 34.
29.87000, 29.
29.90000, 44.
29.93000, 45.
29.96000, 31.
29.99000, 40.
30.02000, 39.
30.05000, 36.
30.08000, 35.
30.11000, 49.
30.14000, 44.
30.17000, 29.
30.20000, 42.
30.23000, 29.
30.26000, 28.
30.29000, 50.
30.32000, 46.
30.35000, 35.
30.38000, 38.
30.41000, 37.
30.44000, 22.
30.47000, 36.
30.50000, 42.
30.53000, 40.
30.56000, 29.
30.59000, 39.
30.62000, 28.
30.65000, 41.
30.68000, 38.
30.71000, 42.
30.74000, 37.
30.77000, 29.
30.80000, 26.
30.83000, 30.
30.86000, 31.
30.89000, 25.
30.92000, 39.
30.95000, 30.
30.98000, 30.
31.01000, 36.
31.04000, 30.
31.07000, 37.
31.10000, 25.
31.13000, 30.
31.16000, 32.
31.19000, 28.
31.22000, 21.
31.25000, 37.
31.28000, 34.
31.31000, 40.
31.34000, 27.
31.37000, 33.
31.40000, 41.
31.43000, 33.
31.46000, 21.
31.49000, 31.
31.52000, 21.
31.55000, 34.
31.58000, 31.
31.61000, 31.
31.64000, 46.
31.67000, 28.
31.70000, 37.
31.73000, 34.
31.76000, 32.
31.79000, 41.
31.82000, 32.
31.85000, 34.
31.88000, 32.
31.91000, 34.
31.94000, 29.
31.97000, 30.
32.00000, 33.
32.03000, 36.
32.06000, 34.
32.09000, 44.
32.12000, 32.
32.15000, 28.
32.18000, 32.
32.21000, 37.
32.24000, 42.
32.27000, 25.
32.30000, 29.
32.33000, 25.
32.36000, 26.
32.39000, 24.
32.42000, 25.
32.45000, 30.
32.48000, 18.
32.51000, 34.
32.54000, 25.
32.57000, 31.
32.60000, 24.
32.63000, 25.
32.66000, 30.
32.69000, 30.
32.72000, 26.
32.75000, 17.
32.78000, 27.
32.81000, 26.
32.84000, 22.
32.87000, 34.
32.90000, 18.
32.93000, 22.
32.96000, 22.
32.99000, 17.
33.02000, 26.
33.05000, 34.
33.08000, 23.
33.11000, 25.
33.14000, 25.
33.17000, 24.
33.20000, 22.
33.23000, 28.
33.26000, 25.
33.29000, 21.
33.32000, 25.
33.35000, 23.
33.38000, 19.
33.41000, 21.
33.44000, 20.
33.47000, 20.
33.50000, 27.
33.53000, 18.
33.56000, 18.
33.59000, 30.
33.62000, 22.
33.65000, 27.
33.68000, 29.
33.71000, 23.
33.74000, 26.
33.77000, 24.
33.80000, 19.
33.83000, 18.
33.86000, 28.
33.89000, 14.
33.92000, 23.
33.95000, 18.
33.98000, 24.
34.01000, 18.
34.04000, 24.
34.07000, 16.
34.10000, 22.
34.13000, 18.
34.16000, 25.
34.19000, 22.
34.22000, 20.
34.25000, 25.
34.28000, 26.
34.31000, 11.
34.34000, 20.
34.37000, 20.
34.40000, 16.
34.43000, 18.
34.46000, 17.
34.49000, 16.
34.52000, 20.
34.55000, 20.
34.58000, 16.
34.61000, 21.
34.64000, 15.
34.67000, 17.
34.70000, 19.
34.73000, 17.
34.76000, 18.
34.79000, 20.
34.82000, 19.
34.85000, 20.
34.88000, 18.
34.91000, 18.
34.94000, 19.
34.97000, 13.
35.00000, 14.
35.03000, 12.
35.06000, 17.
35.09000, 23.
35.12000, 16.
35.15000, 19.
35.18000, 12.
35.21000, 16.
35.24000, 12.
35.27000, 20.
35.30000, 12.
35.33000, 14.
35.36000, 17.
35.39000, 19.
35.42000, 11.
35.45000, 11.
35.48000, 15.
35.51000, 19.
35.54000, 11.
35.57000, 12.
35.60000, 19.
35.63000, 8.
35.66000, 16.
35.69000, 12.
35.72000, 20.
35.75000, 13.
35.78000, 12.
35.81000, 14.
35.84000, 16.
35.87000, 16.
35.90000, 18.
35.93000, 14.
35.96000, 19.
35.99000, 15.
36.02000, 15.
36.05000, 19.
36.08000, 6.
36.11000, 20.
36.14000, 15.
36.17000, 14.
36.20000, 16.
36.23000, 13.
36.26000, 16.
36.29000, 11.
36.32000, 14.
36.35000, 11.
36.38000, 13.
36.41000, 12.
36.44000, 14.
36.47000, 18.
36.50000, 14.
36.53000, 12.
36.56000, 12.
36.59000, 17.
36.62000, 18.
36.65000, 18.
36.68000, 20.
36.71000, 16.
36.74000, 8.
36.77000, 9.
36.80000, 18.
36.83000, 11.
36.86000, 12.
36.89000, 14.
36.92000, 13.
36.95000, 14.
36.98000, 7.
37.01000, 11.
37.04000, 8.
37.07000, 14.
37.10000, 7.
37.13000, 16.
37.16000, 13.
37.19000, 11.
37.22000, 7.
37.25000, 19.
37.28000, 10.
37.31000, 9.
37.34000, 18.
37.37000, 14.
37.40000, 10.
37.43000, 11.
37.46000, 11.
37.49000, 7.
37.52000, 11.
37.55000, 15.
37.58000, 13.
37.61000, 8.
37.64000, 16.
37.67000, 12.
37.70000, 10.
37.73000, 7.
37.76000, 9.
37.79000, 15.
37.82000, 11.
37.85000, 8.
37.88000, 10.
37.91000, 13.
37.94000, 7.
37.97000, 13.
38.00000, 15.
38.03000, 10.
38.06000, 12.
38.09000, 10.
38.12000, 6.
38.15000, 6.
38.18000, 6.
38.21000, 10.
38.24000, 7.
38.27000, 9.
38.30000, 7.
38.33000, 4.
38.36000, 14.
38.39000, 8.
38.42000, 11.
38.45000, 11.
38.48000, 8.
38.51000, 8.
38.54000, 9.
38.57000, 10.
38.60000, 9.
38.63000, 5.
38.66000, 10.
38.69000, 7.
38.72000, 10.
38.75000, 12.
38.78000, 6.
38.81000, 11.
38.84000, 8.
38.87000, 6.
38.90000, 5.
38.93000, 8.
38.96000, 8.
38.99000, 10.
39.02000, 12.
39.05000, 5.
39.08000, 11.
39.11000, 5.
39.14000, 6.
39.17000, 5.
39.20000, 7.
39.23000, 7.
39.26000, 4.
39.29000, 8.
39.32000, 9.
39.35000, 8.
39.38000, 6.
39.41000, 10.
39.44000, 5.
39.47000, 8.
39.50000, 7.
39.53000, 6.
39.56000, 9.
39.59000, 7.
39.62000, 11.
39.65000, 6.
39.68000, 3.
39.71000, 11.
39.74000, 5.
39.77000, 4.
39.80000, 6.
39.83000, 10.
39.86000, 3.
39.89000, 2.
39.92000, 8.
39.95000, 7.
39.98000, 6.
40.01000, 6.
40.04000, 6.
40.07000, 8.
40.10000, 3.
40.13000, 4.
40.16000, 4.
40.19000, 8.
40.22000, 3.
40.25000, 6.
40.28000, 1.
40.31000, 4.
40.34000, 3.
40.37000, 5.
40.40000, 3.
40.43000, 5.
40.46000, 6.
40.49000, 6.
40.52000, 2.
40.55000, 0.
#ENDOFDATA   :