File: sample_data/data/Spectrum value from standard/Nist2587/Spectrum 35.txt
#FORMAT      : EMSA/MAS Spectral Data File
#VERSION     : 1.0
#TITLE       : Spectrum 35
#DATE        : 21-AUG-2025
#TIME        : 15:39
#OWNER       : XGT7200
#NPOINTS     : 4096.
#NCOLUMNS    : 1.
#XUNITS      : keV
#YUNITS      : counts
#DATATYPE    : XY
#XPERCHAN    : 0.0100000
#OFFSET      : -0.400000
#SIGNALTYPE  : EDS
#CHOFFSET    : 40.0000
#LIVETIME    : 30
#REALTIME    : 39.7465
#BEAMKV      : 50.0000
#PROBECUR    : 690000.
#MAGCAM      : 100.000
#XTILTSTGE   : 0.0
#AZIMANGLE   : 0.0
#ELEVANGLE   : 45.0
#XPOSITION mm: 0.0000
#YPOSITION mm: 0.0000
#ZPOSITION mm: 0.0000
##OXINSTPT   : 4
##OXINSTSTROB: 72.07
#SPECTRUM    : Spectral Data Starts Here
-0.40000, 0.
-0.37000, 0.
-0.34000, 0.
-0.31000, 0.
-0.28000, 0.
-0.25000, 0.
-0.22000, 0.
-0.19000, 0.
-0.16000, 0.
-0.13000, 0.
-0.10000, 0.
-0.07000, 0.
-0.04000, 0.
-0.01000, 0.
0.02000, 0.
0.05000, 0.
0.08000, 0.
0.11000, 0.
0.14000, 0.
0.17000, 0.
0.20000, 0.
0.23000, 0.
0.26000, 0.
0.29000, 1.
0.32000, 0.
0.35000, 3.
0.38000, 13.
0.41000, 38.
0.44000, 38.
0.47000, 51.
0.50000, 42.
0.53000, 52.
0.56000, 48.
0.59000, 55.
0.62000, 41.
0.65000, 39.
0.68000, 51.
0.71000, 39.
0.74000, 41.
0.77000, 37.
0.80000, 32.
0.83000, 29.
0.86000, 42.
0.89000, 48.
0.92000, 39.
0.95000, 55.
0.98000, 45.
1.01000, 65.
1.04000, 55.
1.07000, 53.
1.10000, 46.
1.13000, 33.
1.16000, 35.
1.19000, 54.
1.22000, 57.
1.25000, 59.
1.28000, 61.
1.31000, 57.
1.34000, 44.
1.37000, 49.
1.40000, 81.
1.43000, 277.
1.46000, 523.
1.49000, 719.
1.52000, 586.
1.55000, 311.
1.58000, 169.
1.61000, 136.
1.64000, 386.
1.67000, 1555.
1.70000, 4519.
1.73000, 7441.
1.76000, 7780.
1.79000, 4909.
1.82000, 2007.
1.85000, 729.
1.88000, 318.
1.91000, 113.
1.94000, 74.
1.97000, 56.
2.00000, 65.
2.03000, 73.
2.06000, 50.
2.09000, 43.
2.12000, 34.
2.15000, 30.
2.18000, 28.
2.21000, 45.
2.24000, 51.
2.27000, 80.
2.30000, 134.
2.33000, 147.
2.36000, 143.
2.39000, 129.
2.42000, 120.
2.45000, 86.
2.48000, 79.
2.51000, 69.
2.54000, 44.
2.57000, 47.
2.60000, 91.
2.63000, 172.
2.66000, 338.
2.69000, 417.
2.72000, 432.
2.75000, 347.
2.78000, 234.
2.81000, 244.
2.84000, 266.
2.87000, 216.
2.90000, 187.
2.93000, 120.
2.96000, 81.
2.99000, 70.
3.02000, 50.
3.05000, 42.
3.08000, 31.
3.11000, 31.
3.14000, 40.
3.17000, 42.
3.20000, 80.
3.23000, 156.
3.26000, 346.
3.29000, 614.
3.32000, 672.
3.35000, 569.
3.38000, 331.
3.41000, 175.
3.44000, 82.
3.47000, 57.
3.50000, 54.
3.53000, 102.
3.56000, 145.
3.59000, 172.
3.62000, 290.
3.65000, 434.
3.68000, 608.
3.71000, 524.
3.74000, 398.
3.77000, 222.
3.80000, 94.
3.83000, 37.
3.86000, 30.
3.89000, 18.
3.92000, 44.
3.95000, 61.
3.98000, 97.
4.01000, 100.
4.04000, 82.
4.07000, 69.
4.10000, 42.
4.13000, 38.
4.16000, 40.
4.19000, 30.
4.22000, 28.
4.25000, 45.
4.28000, 25.
4.31000, 43.
4.34000, 36.
4.37000, 49.
4.40000, 80.
4.43000, 204.
4.46000, 346.
4.49000, 495.
4.52000, 487.
4.55000, 438.
4.58000, 266.
4.61000, 158.
4.64000, 116.
4.67000, 106.
4.70000, 75.
4.73000, 59.
4.76000, 63.
4.79000, 63.
4.82000, 89.
4.85000, 120.
4.88000, 107.
4.91000, 142.
4.94000, 151.
4.97000, 104.
5.00000, 106.
5.03000, 69.
5.06000, 58.
5.09000, 53.
5.12000, 44.
5.15000, 54.
5.18000, 55.
5.21000, 50.
5.24000, 69.
5.27000, 47.
5.30000, 66.
5.33000, 64.
5.36000, 73.
5.39000, 86.
5.42000, 97.
5.45000, 89.
5.48000, 65.
5.51000, 61.
5.54000, 77.
5.57000, 55.
5.60000, 60.
5.63000, 63.
5.66000, 60.
5.69000, 77.
5.72000, 55.
5.75000, 53.
5.78000, 82.
5.81000, 111.
5.84000, 187.
5.87000, 228.
5.90000, 233.
5.93000, 244.
5.96000, 170.
5.99000, 118.
6.02000, 80.
6.05000, 69.
6.08000, 91.
6.11000, 84.
6.14000, 85.
6.17000, 122.
6.20000, 135.
6.23000, 330.
6.26000, 900.
6.29000, 2207.
6.32000, 4430.
6.35000, 7501.
6.38000, 9881.
6.41000, 10040.
6.44000, 8386.
6.47000, 5348.
6.50000, 2854.
6.53000, 1186.
6.56000, 441.
6.59000, 189.
6.62000, 98.
6.65000, 112.
6.68000, 96.
6.71000, 93.
6.74000, 87.
6.77000, 110.
6.80000, 99.
6.83000, 102.
6.86000, 128.
6.89000, 203.
6.92000, 328.
6.95000, 539.
6.98000, 977.
7.01000, 1408.
7.04000, 1664.
7.07000, 1677.
7.10000, 1313.
7.13000, 940.
7.16000, 488.
7.19000, 287.
7.22000, 138.
7.25000, 102.
7.28000, 82.
7.31000, 74.
7.34000, 97.
7.37000, 81.
7.40000, 71.
7.43000, 98.
7.46000, 108.
7.49000, 96.
7.52000, 91.
7.55000, 84.
7.58000, 82.
7.61000, 83.
7.64000, 86.
7.67000, 73.
7.70000, 78.
7.73000, 72.
7.76000, 96.
7.79000, 87.
7.82000, 87.
7.85000, 99.
7.88000, 119.
7.91000, 122.
7.94000, 153.
7.97000, 182.
8.00000, 173.
8.03000, 219.
8.06000, 225.
8.09000, 202.
8.12000, 208.
8.15000, 152.
8.18000, 174.
8.21000, 148.
8.24000, 126.
8.27000, 140.
8.30000, 119.
8.33000, 104.
8.36000, 114.
8.39000, 122.
8.42000, 125.
8.45000, 131.
8.48000, 149.
8.51000, 162.
8.54000, 228.
8.57000, 281.
8.60000, 357.
8.63000, 372.
8.66000, 358.
8.69000, 276.
8.72000, 235.
8.75000, 185.
8.78000, 132.
8.81000, 130.
8.84000, 158.
8.87000, 130.
8.90000, 148.
8.93000, 142.
8.96000, 122.
8.99000, 131.
9.02000, 136.
9.05000, 159.
9.08000, 148.
9.11000, 168.
9.14000, 163.
9.17000, 193.
9.20000, 174.
9.23000, 180.
9.26000, 173.
9.29000, 139.
9.32000, 144.
9.35000, 156.
9.38000, 141.
9.41000, 136.
9.44000, 148.
9.47000, 153.
9.50000, 153.
9.53000, 157.
9.56000, 193.
9.59000, 215.
9.62000, 152.
9.65000, 163.
9.68000, 132.
9.71000, 150.
9.74000, 138.
9.77000, 135.
9.80000, 132.
9.83000, 150.
9.86000, 136.
9.89000, 157.
9.92000, 161.
9.95000, 132.
9.98000, 122.
10.01000, 149.
10.04000, 122.
10.07000, 140.
10.10000, 155.
10.13000, 141.
10.16000, 155.
10.19000, 158.
10.22000, 147.
10.25000, 157.
10.28000, 170.
10.31000, 209.
10.34000, 215.
10.37000, 313.
10.40000, 477.
10.43000, 638.
10.46000, 886.
10.49000, 1189.
10.52000, 1364.
10.55000, 1332.
10.58000, 1303.
10.61000, 965.
10.64000, 682.
10.67000, 452.
10.70000, 300.
10.73000, 202.
10.76000, 193.
10.79000, 160.
10.82000, 157.
10.85000, 163.
10.88000, 137.
10.91000, 168.
10.94000, 169.
10.97000, 139.
11.00000, 153.
11.03000, 151.
11.06000, 143.
11.09000, 149.
11.12000, 178.
11.15000, 179.
11.18000, 153.
11.21000, 157.
11.24000, 168.
11.27000, 172.
11.30000, 164.
11.33000, 170.
11.36000, 150.
11.39000, 174.
11.42000, 213.
11.45000, 168.
11.48000, 179.
11.51000, 156.
11.54000, 163.
11.57000, 158.
11.60000, 159.
11.63000, 134.
11.66000, 154.
11.69000, 158.
11.72000, 158.
11.75000, 184.
11.78000, 146.
11.81000, 174.
11.84000, 164.
11.87000, 211.
11.90000, 181.
11.93000, 177.
11.96000, 175.
11.99000, 158.
12.02000, 163.
12.05000, 187.
12.08000, 209.
12.11000, 213.
12.14000, 212.
12.17000, 249.
12.20000, 222.
12.23000, 254.
12.26000, 252.
12.29000, 277.
12.32000, 222.
12.35000, 250.
12.38000, 257.
12.41000, 303.
12.44000, 374.
12.47000, 490.
12.50000, 699.
12.53000, 893.
12.56000, 1184.
12.59000, 1362.
12.62000, 1407.
12.65000, 1171.
12.68000, 952.
12.71000, 782.
12.74000, 583.
12.77000, 400.
12.80000, 348.
12.83000, 286.
12.86000, 251.
12.89000, 244.
12.92000, 242.
12.95000, 229.
12.98000, 247.
13.01000, 204.
13.04000, 221.
13.07000, 186.
13.10000, 174.
13.13000, 216.
13.16000, 171.
13.19000, 185.
13.22000, 200.
13.25000, 212.
13.28000, 233.
13.31000, 251.
13.34000, 239.
13.37000, 262.
13.40000, 251.
13.43000, 259.
13.46000, 231.
13.49000, 188.
13.52000, 174.
13.55000, 193.
13.58000, 155.
13.61000, 150.
13.64000, 181.
13.67000, 178.
13.70000, 157.
13.73000, 169.
13.76000, 167.
13.79000, 159.
13.82000, 183.
13.85000, 159.
13.88000, 163.
13.91000, 163.
13.94000, 198.
13.97000, 222.
14.00000, 210.
14.03000, 219.
14.06000, 288.
14.09000, 290.
14.12000, 313.
14.15000, 294.
14.18000, 306.
14.21000, 255.
14.24000, 234.
14.27000, 196.
14.30000, 195.
14.33000, 159.
14.36000, 149.
14.39000, 190.
14.42000, 168.
14.45000, 165.
14.48000, 182.
14.51000, 170.
14.54000, 179.
14.57000, 190.
14.60000, 214.
14.63000, 234.
14.66000, 295.
14.69000, 277.
14.72000, 357.
14.75000, 371.
14.78000, 357.
14.81000, 327.
14.84000, 306.
14.87000, 248.
14.90000, 234.
14.93000, 213.
14.96000, 229.
14.99000, 207.
15.02000, 210.
15.05000, 213.
15.08000, 225.
15.11000, 222.
15.14000, 223.
15.17000, 216.
15.20000, 214.
15.23000, 191.
15.26000, 208.
15.29000, 206.
15.32000, 195.
15.35000, 157.
15.38000, 150.
15.41000, 153.
15.44000, 162.
15.47000, 165.
15.50000, 176.
15.53000, 202.
15.56000, 241.
15.59000, 287.
15.62000, 323.
15.65000, 376.
15.68000, 467.
15.71000, 462.
15.74000, 478.
15.77000, 489.
15.80000, 376.
15.83000, 352.
15.86000, 255.
15.89000, 241.
15.92000, 192.
15.95000, 200.
15.98000, 166.
16.01000, 133.
16.04000, 148.
16.07000, 162.
16.10000, 163.
16.13000, 158.
16.16000, 166.
16.19000, 160.
16.22000, 157.
16.25000, 168.
16.28000, 134.
16.31000, 144.
16.34000, 170.
16.37000, 165.
16.40000, 182.
16.43000, 156.
16.46000, 165.
16.49000, 184.
16.52000, 176.
16.55000, 180.
16.58000, 176.
16.61000, 157.
16.64000, 154.
16.67000, 169.
16.70000, 196.
16.73000, 179.
16.76000, 161.
16.79000, 174.
16.82000, 158.
16.85000, 165.
16.88000, 155.
16.91000, 192.
16.94000, 168.
16.97000, 186.
17.00000, 160.
17.03000, 163.
17.06000, 148.
17.09000, 149.
17.12000, 151.
17.15000, 159.
17.18000, 167.
17.21000, 190.
17.24000, 181.
17.27000, 169.
17.30000, 179.
17.33000, 184.
17.36000, 172.
17.39000, 150.
17.42000, 167.
17.45000, 188.
17.48000, 189.
17.51000, 185.
17.54000, 231.
17.57000, 222.
17.60000, 249.
17.63000, 242.
17.66000, 252.
17.69000, 231.
17.72000, 239.
17.75000, 249.
17.78000, 222.
17.81000, 222.
17.84000, 201.
17.87000, 233.
17.90000, 236.
17.93000, 202.
17.96000, 224.
17.99000, 228.
18.02000, 219.
18.05000, 266.
18.08000, 270.
18.11000, 276.
18.14000, 285.
18.17000, 291.
18.20000, 295.
18.23000, 311.
18.26000, 316.
18.29000, 371.
18.32000, 383.
18.35000, 401.
18.38000, 488.
18.41000, 476.
18.44000, 547.
18.47000, 557.
18.50000, 592.
18.53000, 695.
18.56000, 700.
18.59000, 768.
18.62000, 809.
18.65000, 878.
18.68000, 851.
18.71000, 917.
18.74000, 897.
18.77000, 1008.
18.80000, 923.
18.83000, 989.
18.86000, 966.
18.89000, 918.
18.92000, 860.
18.95000, 895.
18.98000, 815.
19.01000, 772.
19.04000, 682.
19.07000, 715.
19.10000, 577.
19.13000, 532.
19.16000, 478.
19.19000, 479.
19.22000, 410.
19.25000, 394.
19.28000, 387.
19.31000, 392.
19.34000, 311.
19.37000, 294.
19.40000, 311.
19.43000, 282.
19.46000, 281.
19.49000, 265.
19.52000, 265.
19.55000, 253.
19.58000, 222.
19.61000, 226.
19.64000, 209.
19.67000, 168.
19.70000, 199.
19.73000, 202.
19.76000, 191.
19.79000, 187.
19.82000, 187.
19.85000, 203.
19.88000, 207.
19.91000, 241.
19.94000, 313.
19.97000, 337.
20.00000, 381.
20.03000, 462.
20.06000, 491.
20.09000, 522.
20.12000, 518.
20.15000, 613.
20.18000, 592.
20.21000, 580.
20.24000, 460.
20.27000, 432.
20.30000, 345.
20.33000, 269.
20.36000, 228.
20.39000, 202.
20.42000, 170.
20.45000, 177.
20.48000, 170.
20.51000, 167.
20.54000, 158.
20.57000, 195.
20.60000, 179.
20.63000, 208.
20.66000, 219.
20.69000, 195.
20.72000, 217.
20.75000, 235.
20.78000, 222.
20.81000, 241.
20.84000, 242.
20.87000, 272.
20.90000, 258.
20.93000, 272.
20.96000, 270.
20.99000, 283.
21.02000, 292.
21.05000, 292.
21.08000, 289.
21.11000, 243.
21.14000, 269.
21.17000, 253.
21.20000, 239.
21.23000, 214.
21.26000, 216.
21.29000, 224.
21.32000, 178.
21.35000, 217.
21.38000, 179.
21.41000, 183.
21.44000, 191.
21.47000, 174.
21.50000, 157.
21.53000, 148.
21.56000, 130.
21.59000, 158.
21.62000, 126.
21.65000, 131.
21.68000, 149.
21.71000, 113.
21.74000, 112.
21.77000, 113.
21.80000, 123.
21.83000, 121.
21.86000, 111.
21.89000, 121.
21.92000, 98.
21.95000, 117.
21.98000, 120.
22.01000, 118.
22.04000, 114.
22.07000, 79.
22.10000, 92.
22.13000, 92.
22.16000, 72.
22.19000, 80.
22.22000, 101.
22.25000, 101.
22.28000, 85.
22.31000, 96.
22.34000, 95.
22.37000, 95.
22.40000, 94.
22.43000, 90.
22.46000, 77.
22.49000, 92.
22.52000, 122.
22.55000, 112.
22.58000, 139.
22.61000, 129.
22.64000, 137.
22.67000, 132.
22.70000, 184.
22.73000, 151.
22.76000, 111.
22.79000, 119.
22.82000, 112.
22.85000, 107.
22.88000, 96.
22.91000, 78.
22.94000, 92.
22.97000, 70.
23.00000, 81.
23.03000, 86.
23.06000, 99.
23.09000, 94.
23.12000, 86.
23.15000, 76.
23.18000, 66.
23.21000, 85.
23.24000, 82.
23.27000, 84.
23.30000, 84.
23.33000, 83.
23.36000, 61.
23.39000, 72.
23.42000, 76.
23.45000, 77.
23.48000, 77.
23.51000, 66.
23.54000, 72.
23.57000, 75.
23.60000, 67.
23.63000, 66.
23.66000, 71.
23.69000, 69.
23.72000, 85.
23.75000, 66.
23.78000, 72.
23.81000, 74.
23.84000, 66.
23.87000, 71.
23.90000, 75.
23.93000, 70.
23.96000, 63.
23.99000, 64.
24.02000, 67.
24.05000, 79.
24.08000, 63.
24.11000, 54.
24.14000, 74.
24.17000, 68.
24.20000, 63.
24.23000, 84.
24.26000, 72.
24.29000, 78.
24.32000, 75.
24.35000, 70.
24.38000, 73.
24.41000, 63.
24.44000, 73.
24.47000, 74.
24.50000, 70.
24.53000, 82.
24.56000, 64.
24.59000, 79.
24.62000, 70.
24.65000, 64.
24.68000, 59.
24.71000, 66.
24.74000, 82.
24.77000, 66.
24.80000, 56.
24.83000, 70.
24.86000, 81.
24.89000, 79.
24.92000, 73.
24.95000, 70.
24.98000, 67.
25.01000, 71.
25.04000, 67.
25.07000, 55.
25.10000, 73.
25.13000, 82.
25.16000, 79.
25.19000, 77.
25.22000, 85.
25.25000, 67.
25.28000, 72.
25.31000, 73.
25.34000, 72.
25.37000, 49.
25.40000, 66.
25.43000, 60.
25.46000, 73.
25.49000, 68.
25.52000, 65.
25.55000, 59.
25.58000, 70.
25.61000, 56.
25.64000, 63.
25.67000, 66.
25.70000, 65.
25.73000, 61.
25.76000, 58.
25.79000, 67.
25.82000, 60.
25.85000, 64.
25.88000, 49.
25.91000, 64.
25.94000, 60.
25.97000, 56.
26.00000, 61.
26.03000, 81.
26.06000, 66.
26.09000, 60.
26.12000, 58.
26.15000, 68.
26.18000, 51.
26.21000, 63.
26.24000, 61.
26.27000, 53.
26.30000, 72.
26.33000, 67.
26.36000, 45.
26.39000, 56.
26.42000, 63.
26.45000, 63.
26.48000, 57.
26.51000, 64.
26.54000, 57.
26.57000, 48.
26.60000, 61.
26.63000, 58.
26.66000, 66.
26.69000, 60.
26.72000, 58.
26.75000, 58.
26.78000, 58.
26.81000, 54.
26.84000, 47.
26.87000, 55.
26.90000, 49.
26.93000, 57.
26.96000, 37.
26.99000, 59.
27.02000, 62.
27.05000, 48.
27.08000, 57.
27.11000, 42.
27.14000, 49.
27.17000, 65.
27.20000, 58.
27.23000, 59.
27.26000, 45.
27.29000, 62.
27.32000, 49.
27.35000, 54.
27.38000, 29.
27.41000, 46.
27.44000, 61.
27.47000, 49.
27.50000, 55.
27.53000, 51.
27.56000, 58.
27.59000, 65.
27.62000, 59.
27.65000, 47.
27.68000, 48.
27.71000, 43.
27.74000, 44.
27.77000, 57.
27.80000, 31.
27.83000, 48.
27.86000, 50.
27.89000, 47.
27.92000, 60.
27.95000, 46.
27.98000, 58.
28.01000, 53.
28.04000, 43.
28.07000, 47.
28.10000, 40.
28.13000, 51.
28.16000, 40.
28.19000, 57.
28.22000, 52.
28.25000, 43.
28.28000, 38.
28.31000, 53.
28.34000, 52.
28.37000, 54.
28.40000, 33.
28.43000, 53.
28.46000, 38.
28.49000, 41.
28.52000, 51.
28.55000, 45.
28.58000, 53.
28.61000, 49.
28.64000, 53.
28.67000, 35.
28.70000, 47.
28.73000, 61.
28.76000, 39.
28.79000, 37.
28.82000, 45.
28.85000, 52.
28.88000, 43.
28.91000, 41.
28.94000, 40.
28.97000, 55.
29.00000, 36.
29.03000, 36.
29.06000, 46.
29.09000, 45.
29.12000, 39.
29.15000, 39.
29.18000, 43.
29.21000, 47.
29.24000, 44.
29.27000, 42.
29.30000, 37.
29.33000, 45.
29.36000, 40.
29.39000, 33.
29.42000, 36.
29.45000, 38.
29.48000, 50.
29.51000, 32.
29.54000, 31.
29.57000, 37.
29.60000, 26.
29.63000, 40.
29.66000, 42.
29.69000, 48.
29.72000, 36.
29.75000, 35.
29.78000, 45.
29.81000, 32.
29.84000, 41.
29.87000, 38.
29.90000, 44.
29.93000, 35.
29.96000, 33.
29.99000, 35.
30.02000, 41.
30.05000, 42.
30.08000, 40.
30.11000, 45.
30.14000, 42.
30.17000, 38.
30.20000, 48.
30.23000, 24.
30.26000, 35.
30.29000, 32.
30.32000, 36.
30.35000, 35.
30.38000, 25.
30.41000, 38.
30.44000, 41.
30.47000, 39.
30.50000, 38.
30.53000, 37.
30.56000, 25.
30.59000, 42.
30.62000, 28.
30.65000, 49.
30.68000, 30.
30.71000, 36.
30.74000, 47.
30.77000, 36.
30.80000, 35.
30.83000, 50.
30.86000, 31.
30.89000, 42.
30.92000, 37.
30.95000, 33.
30.98000, 40.
31.01000, 28.
31.04000, 30.
31.07000, 41.
31.10000, 32.
31.13000, 29.
31.16000, 30.
31.19000, 25.
31.22000, 34.
31.25000, 36.
31.28000, 20.
31.31000, 38.
31.34000, 25.
31.37000, 23.
31.40000, 27.
31.43000, 33.
31.46000, 31.
31.49000, 32.
31.52000, 38.
31.55000, 32.
31.58000, 30.
31.61000, 32.
31.64000, 38.
31.67000, 24.
31.70000, 33.
31.73000, 34.
31.76000, 37.
31.79000, 32.
31.82000, 29.
31.85000, 33.
31.88000, 37.
31.91000, 27.
31.94000, 36.
31.97000, 29.
32.00000, 29.
32.03000, 31.
32.06000, 38.
32.09000, 33.
32.12000, 28.
32.15000, 43.
32.18000, 35.
32.21000, 39.
32.24000, 31.
32.27000, 27.
32.30000, 36.
32.33000, 30.
32.36000, 32.
32.39000, 36.
32.42000, 17.
32.45000, 29.
32.48000, 28.
32.51000, 28.
32.54000, 28.
32.57000, 26.
32.60000, 20.
32.63000, 37.
32.66000, 35.
32.69000, 15.
32.72000, 25.
32.75000, 17.
32.78000, 27.
32.81000, 32.
32.84000, 29.
32.87000, 16.
32.90000, 14.
32.93000, 22.
32.96000, 34.
32.99000, 13.
33.02000, 26.
33.05000, 28.
33.08000, 17.
33.11000, 30.
33.14000, 22.
33.17000, 30.
33.20000, 31.
33.23000, 21.
33.26000, 27.
33.29000, 23.
33.32000, 27.
33.35000, 30.
33.38000, 40.
33.41000, 18.
33.44000, 16.
33.47000, 13.
33.50000, 18.
33.53000, 21.
33.56000, 21.
33.59000, 22.
33.62000, 17.
33.65000, 30.
33.68000, 24.
33.71000, 27.
33.74000, 27.
33.77000, 22.
33.80000, 15.
33.83000, 23.
33.86000, 26.
33.89000, 15.
33.92000, 27.
33.95000, 22.
33.98000, 21.
34.01000, 25.
34.04000, 19.
34.07000, 15.
34.10000, 20.
34.13000, 22.
34.16000, 21.
34.19000, 15.
34.22000, 16.
34.25000, 17.
34.28000, 16.
34.31000, 19.
34.34000, 15.
34.37000, 17.
34.40000, 19.
34.43000, 21.
34.46000, 21.
34.49000, 19.
34.52000, 17.
34.55000, 15.
34.58000, 22.
34.61000, 14.
34.64000, 24.
34.67000, 12.
34.70000, 14.
34.73000, 18.
34.76000, 22.
34.79000, 25.
34.82000, 20.
34.85000, 18.
34.88000, 18.
34.91000, 18.
34.94000, 20.
34.97000, 16.
35.00000, 17.
35.03000, 19.
35.06000, 19.
35.09000, 21.
35.12000, 12.
35.15000, 20.
35.18000, 11.
35.21000, 12.
35.24000, 14.
35.27000, 17.
35.30000, 7.
35.33000, 15.
35.36000, 16.
35.39000, 19.
35.42000, 19.
35.45000, 8.
35.48000, 16.
35.51000, 14.
35.54000, 17.
35.57000, 12.
35.60000, 16.
35.63000, 16.
35.66000, 18.
35.69000, 12.
35.72000, 15.
35.75000, 14.
35.78000, 12.
35.81000, 16.
35.84000, 14.
35.87000, 25.
35.90000, 16.
35.93000, 15.
35.96000, 17.
35.99000, 16.
36.02000, 14.
36.05000, 13.
36.08000, 13.
36.11000, 13.
36.14000, 12.
36.17000, 21.
36.20000, 21.
36.23000, 12.
36.26000, 14.
36.29000, 13.
36.32000, 16.
36.35000, 11.
36.38000, 14.
36.41000, 10.
36.44000, 17.
36.47000, 13.
36.50000, 14.
36.53000, 15.
36.56000, 11.
36.59000, 13.
36.62000, 11.
36.65000, 11.
36.68000, 10.
36.71000, 11.
36.74000, 15.
36.77000, 13.
36.80000, 10.
36.83000, 12.
36.86000, 12.
36.89000, 11.
36.92000, 11.
36.95000, 21.
36.98000, 9.
37.01000, 12.
37.04000, 14.
37.07000, 12.
37.10000, 8.
37.13000, 9.
37.16000, 12.
37.19000, 13.
37.22000, 4.
37.25000, 9.
37.28000, 17.
37.31000, 7.
37.34000, 9.
37.37000, 13.
37.40000, 7.
37.43000, 16.
37.46000, 11.
37.49000, 10.
37.52000, 10.
37.55000, 8.
37.58000, 12.
37.61000, 11.
37.64000, 11.
37.67000, 10.
37.70000, 15.
37.73000, 6.
37.76000, 3.
37.79000, 11.
37.82000, 10.
37.85000, 8.
37.88000, 11.
37.91000, 6.
37.94000, 8.
37.97000, 9.
38.00000, 13.
38.03000, 9.
38.06000, 12.
38.09000, 5.
38.12000, 5.
38.15000, 11.
38.18000, 7.
38.21000, 9.
38.24000, 13.
38.27000, 11.
38.30000, 13.
38.33000, 10.
38.36000, 7.
38.39000, 9.
38.42000, 8.
38.45000, 9.
38.48000, 14.
38.51000, 11.
38.54000, 9.
38.57000, 7.
38.60000, 13.
38.63000, 7.
38.66000, 6.
38.69000, 6.
38.72000, 7.
38.75000, 3.
38.78000, 5.
38.81000, 5.
38.84000, 8.
38.87000, 7.
38.90000, 8.
38.93000, 8.
38.96000, 6.
38.99000, 7.
39.02000, 8.
39.05000, 10.
39.08000, 7.
39.11000, 6.
39.14000, 9.
39.17000, 8.
39.20000, 6.
39.23000, 12.
39.26000, 12.
39.29000, 6.
39.32000, 6.
39.35000, 4.
39.38000, 8.
39.41000, 8.
39.44000, 4.
39.47000, 8.
39.50000, 7.
39.53000, 10.
39.56000, 4.
39.59000, 9.
39.62000, 3.
39.65000, 7.
39.68000, 5.
39.71000, 6.
39.74000, 5.
39.77000, 8.
39.80000, 6.
39.83000, 5.
39.86000, 3.
39.89000, 5.
39.92000, 5.
39.95000, 4.
39.98000, 7.
40.01000, 4.
40.04000, 4.
40.07000, 7.
40.10000, 12.
40.13000, 11.
40.16000, 5.
40.19000, 5.
40.22000, 5.
40.25000, 4.
40.28000, 4.
40.31000, 7.
40.34000, 8.
40.37000, 4.
40.40000, 2.
40.43000, 6.
40.46000, 7.
40.49000, 6.
40.52000, 6.
40.55000, 0.
#ENDOFDATA   :