File: sample_data/data/Al.txt
#FORMAT      : EMSA/MAS Spectral Data File
#VERSION     : 1.0
#TITLE       : Spectrum 2
#DATE        : 25-NOV-2025
#TIME        : 13:30
#OWNER       : XGT7200
#NPOINTS     : 4096.
#NCOLUMNS    : 1.
#XUNITS      : keV
#YUNITS      : counts
#DATATYPE    : XY
#XPERCHAN    : 0.0100000
#OFFSET      : -0.400000
#SIGNALTYPE  : EDS
#CHOFFSET    : 40.0000
#LIVETIME    : 30
#REALTIME    : 34.2373
#BEAMKV      : 30.0000
#PROBECUR    : 1.00000E+006
#MAGCAM      : 100.000
#XTILTSTGE   : 0.0
#AZIMANGLE   : 0.0
#ELEVANGLE   : 45.0
#XPOSITION mm: 0.0000
#YPOSITION mm: 0.0000
#ZPOSITION mm: 0.0000
##OXINSTPT   : 4
##OXINSTSTROB: 71.26
#SPECTRUM    : Spectral Data Starts Here
-0.40000, 0.
-0.37000, 0.
-0.34000, 0.
-0.31000, 0.
-0.28000, 0.
-0.25000, 0.
-0.22000, 0.
-0.19000, 0.
-0.16000, 0.
-0.13000, 0.
-0.10000, 0.
-0.07000, 0.
-0.04000, 0.
-0.01000, 0.
0.02000, 0.
0.05000, 0.
0.08000, 0.
0.11000, 0.
0.14000, 0.
0.17000, 0.
0.20000, 0.
0.23000, 0.
0.26000, 0.
0.29000, 0.
0.32000, 0.
0.35000, 0.
0.38000, 5.
0.41000, 7.
0.44000, 4.
0.47000, 5.
0.50000, 5.
0.53000, 9.
0.56000, 10.
0.59000, 5.
0.62000, 5.
0.65000, 4.
0.68000, 6.
0.71000, 5.
0.74000, 6.
0.77000, 3.
0.80000, 10.
0.83000, 6.
0.86000, 10.
0.89000, 16.
0.92000, 20.
0.95000, 34.
0.98000, 31.
1.01000, 17.
1.04000, 6.
1.07000, 7.
1.10000, 10.
1.13000, 8.
1.16000, 13.
1.19000, 11.
1.22000, 9.
1.25000, 18.
1.28000, 21.
1.31000, 24.
1.34000, 36.
1.37000, 91.
1.40000, 389.
1.43000, 1480.
1.46000, 3552.
1.49000, 4769.
1.52000, 3693.
1.55000, 1783.
1.58000, 569.
1.61000, 136.
1.64000, 48.
1.67000, 79.
1.70000, 240.
1.73000, 344.
1.76000, 408.
1.79000, 254.
1.82000, 107.
1.85000, 38.
1.88000, 24.
1.91000, 4.
1.94000, 4.
1.97000, 5.
2.00000, 1.
2.03000, 2.
2.06000, 4.
2.09000, 3.
2.12000, 3.
2.15000, 3.
2.18000, 2.
2.21000, 8.
2.24000, 5.
2.27000, 9.
2.30000, 16.
2.33000, 15.
2.36000, 8.
2.39000, 11.
2.42000, 7.
2.45000, 8.
2.48000, 3.
2.51000, 13.
2.54000, 15.
2.57000, 53.
2.60000, 179.
2.63000, 520.
2.66000, 1171.
2.69000, 1693.
2.72000, 1565.
2.75000, 996.
2.78000, 429.
2.81000, 140.
2.84000, 34.
2.87000, 19.
2.90000, 8.
2.93000, 19.
2.96000, 12.
2.99000, 19.
3.02000, 20.
3.05000, 24.
3.08000, 11.
3.11000, 18.
3.14000, 24.
3.17000, 7.
3.20000, 11.
3.23000, 9.
3.26000, 2.
3.29000, 5.
3.32000, 3.
3.35000, 5.
3.38000, 8.
3.41000, 2.
3.44000, 2.
3.47000, 1.
3.50000, 1.
3.53000, 1.
3.56000, 1.
3.59000, 5.
3.62000, 1.
3.65000, 2.
3.68000, 2.
3.71000, 4.
3.74000, 2.
3.77000, 2.
3.80000, 2.
3.83000, 2.
3.86000, 2.
3.89000, 3.
3.92000, 2.
3.95000, 2.
3.98000, 2.
4.01000, 4.
4.04000, 4.
4.07000, 5.
4.10000, 5.
4.13000, 4.
4.16000, 10.
4.19000, 12.
4.22000, 11.
4.25000, 3.
4.28000, 2.
4.31000, 6.
4.34000, 11.
4.37000, 17.
4.40000, 21.
4.43000, 20.
4.46000, 18.
4.49000, 13.
4.52000, 5.
4.55000, 6.
4.58000, 4.
4.61000, 7.
4.64000, 4.
4.67000, 4.
4.70000, 4.
4.73000, 9.
4.76000, 9.
4.79000, 5.
4.82000, 3.
4.85000, 5.
4.88000, 4.
4.91000, 4.
4.94000, 8.
4.97000, 4.
5.00000, 6.
5.03000, 11.
5.06000, 19.
5.09000, 20.
5.12000, 45.
5.15000, 54.
5.18000, 73.
5.21000, 49.
5.24000, 44.
5.27000, 31.
5.30000, 12.
5.33000, 12.
5.36000, 15.
5.39000, 16.
5.42000, 5.
5.45000, 11.
5.48000, 12.
5.51000, 6.
5.54000, 1.
5.57000, 9.
5.60000, 3.
5.63000, 6.
5.66000, 7.
5.69000, 9.
5.72000, 8.
5.75000, 8.
5.78000, 5.
5.81000, 10.
5.84000, 7.
5.87000, 5.
5.90000, 5.
5.93000, 5.
5.96000, 8.
5.99000, 4.
6.02000, 8.
6.05000, 10.
6.08000, 5.
6.11000, 8.
6.14000, 12.
6.17000, 18.
6.20000, 14.
6.23000, 18.
6.26000, 27.
6.29000, 10.
6.32000, 14.
6.35000, 7.
6.38000, 16.
6.41000, 11.
6.44000, 5.
6.47000, 17.
6.50000, 12.
6.53000, 13.
6.56000, 7.
6.59000, 11.
6.62000, 10.
6.65000, 14.
6.68000, 18.
6.71000, 22.
6.74000, 27.
6.77000, 40.
6.80000, 39.
6.83000, 42.
6.86000, 34.
6.89000, 35.
6.92000, 41.
6.95000, 51.
6.98000, 57.
7.01000, 47.
7.04000, 29.
7.07000, 25.
7.10000, 15.
7.13000, 11.
7.16000, 5.
7.19000, 16.
7.22000, 13.
7.25000, 17.
7.28000, 11.
7.31000, 12.
7.34000, 11.
7.37000, 12.
7.40000, 7.
7.43000, 22.
7.46000, 13.
7.49000, 17.
7.52000, 15.
7.55000, 24.
7.58000, 19.
7.61000, 27.
7.64000, 24.
7.67000, 34.
7.70000, 33.
7.73000, 22.
7.76000, 22.
7.79000, 12.
7.82000, 14.
7.85000, 16.
7.88000, 20.
7.91000, 17.
7.94000, 24.
7.97000, 22.
8.00000, 32.
8.03000, 34.
8.06000, 46.
8.09000, 47.
8.12000, 42.
8.15000, 41.
8.18000, 36.
8.21000, 25.
8.24000, 19.
8.27000, 19.
8.30000, 16.
8.33000, 19.
8.36000, 15.
8.39000, 12.
8.42000, 20.
8.45000, 14.
8.48000, 23.
8.51000, 23.
8.54000, 19.
8.57000, 23.
8.60000, 21.
8.63000, 19.
8.66000, 24.
8.69000, 20.
8.72000, 17.
8.75000, 16.
8.78000, 14.
8.81000, 22.
8.84000, 15.
8.87000, 18.
8.90000, 22.
8.93000, 16.
8.96000, 25.
8.99000, 26.
9.02000, 19.
9.05000, 22.
9.08000, 14.
9.11000, 19.
9.14000, 34.
9.17000, 36.
9.20000, 40.
9.23000, 32.
9.26000, 30.
9.29000, 35.
9.32000, 42.
9.35000, 30.
9.38000, 30.
9.41000, 23.
9.44000, 21.
9.47000, 26.
9.50000, 30.
9.53000, 20.
9.56000, 30.
9.59000, 20.
9.62000, 21.
9.65000, 30.
9.68000, 26.
9.71000, 26.
9.74000, 28.
9.77000, 24.
9.80000, 39.
9.83000, 45.
9.86000, 31.
9.89000, 34.
9.92000, 36.
9.95000, 33.
9.98000, 32.
10.01000, 29.
10.04000, 28.
10.07000, 21.
10.10000, 25.
10.13000, 25.
10.16000, 26.
10.19000, 26.
10.22000, 28.
10.25000, 35.
10.28000, 34.
10.31000, 28.
10.34000, 31.
10.37000, 26.
10.40000, 24.
10.43000, 29.
10.46000, 32.
10.49000, 30.
10.52000, 22.
10.55000, 20.
10.58000, 20.
10.61000, 22.
10.64000, 23.
10.67000, 27.
10.70000, 21.
10.73000, 30.
10.76000, 33.
10.79000, 20.
10.82000, 21.
10.85000, 26.
10.88000, 17.
10.91000, 18.
10.94000, 28.
10.97000, 28.
11.00000, 25.
11.03000, 23.
11.06000, 28.
11.09000, 27.
11.12000, 38.
11.15000, 25.
11.18000, 27.
11.21000, 34.
11.24000, 25.
11.27000, 26.
11.30000, 26.
11.33000, 29.
11.36000, 25.
11.39000, 30.
11.42000, 30.
11.45000, 24.
11.48000, 33.
11.51000, 25.
11.54000, 23.
11.57000, 20.
11.60000, 30.
11.63000, 27.
11.66000, 32.
11.69000, 34.
11.72000, 38.
11.75000, 24.
11.78000, 34.
11.81000, 22.
11.84000, 30.
11.87000, 27.
11.90000, 37.
11.93000, 31.
11.96000, 35.
11.99000, 30.
12.02000, 31.
12.05000, 22.
12.08000, 23.
12.11000, 19.
12.14000, 27.
12.17000, 23.
12.20000, 27.
12.23000, 24.
12.26000, 24.
12.29000, 27.
12.32000, 24.
12.35000, 25.
12.38000, 29.
12.41000, 31.
12.44000, 32.
12.47000, 30.
12.50000, 28.
12.53000, 29.
12.56000, 29.
12.59000, 31.
12.62000, 34.
12.65000, 28.
12.68000, 29.
12.71000, 33.
12.74000, 30.
12.77000, 36.
12.80000, 30.
12.83000, 41.
12.86000, 32.
12.89000, 27.
12.92000, 27.
12.95000, 28.
12.98000, 24.
13.01000, 26.
13.04000, 34.
13.07000, 27.
13.10000, 29.
13.13000, 28.
13.16000, 32.
13.19000, 27.
13.22000, 30.
13.25000, 23.
13.28000, 23.
13.31000, 32.
13.34000, 46.
13.37000, 18.
13.40000, 20.
13.43000, 22.
13.46000, 29.
13.49000, 29.
13.52000, 19.
13.55000, 22.
13.58000, 25.
13.61000, 21.
13.64000, 25.
13.67000, 24.
13.70000, 27.
13.73000, 31.
13.76000, 26.
13.79000, 29.
13.82000, 33.
13.85000, 25.
13.88000, 26.
13.91000, 25.
13.94000, 28.
13.97000, 24.
14.00000, 26.
14.03000, 26.
14.06000, 24.
14.09000, 29.
14.12000, 31.
14.15000, 21.
14.18000, 29.
14.21000, 30.
14.24000, 27.
14.27000, 25.
14.30000, 27.
14.33000, 23.
14.36000, 27.
14.39000, 37.
14.42000, 21.
14.45000, 32.
14.48000, 20.
14.51000, 34.
14.54000, 23.
14.57000, 29.
14.60000, 17.
14.63000, 35.
14.66000, 27.
14.69000, 23.
14.72000, 29.
14.75000, 22.
14.78000, 22.
14.81000, 28.
14.84000, 45.
14.87000, 20.
14.90000, 23.
14.93000, 33.
14.96000, 25.
14.99000, 29.
15.02000, 27.
15.05000, 26.
15.08000, 29.
15.11000, 29.
15.14000, 25.
15.17000, 24.
15.20000, 20.
15.23000, 23.
15.26000, 21.
15.29000, 20.
15.32000, 26.
15.35000, 29.
15.38000, 21.
15.41000, 21.
15.44000, 29.
15.47000, 23.
15.50000, 30.
15.53000, 28.
15.56000, 15.
15.59000, 36.
15.62000, 25.
15.65000, 28.
15.68000, 28.
15.71000, 21.
15.74000, 27.
15.77000, 33.
15.80000, 19.
15.83000, 27.
15.86000, 18.
15.89000, 27.
15.92000, 27.
15.95000, 31.
15.98000, 27.
16.01000, 29.
16.04000, 22.
16.07000, 21.
16.10000, 22.
16.13000, 24.
16.16000, 28.
16.19000, 25.
16.22000, 30.
16.25000, 24.
16.28000, 18.
16.31000, 29.
16.34000, 22.
16.37000, 21.
16.40000, 25.
16.43000, 25.
16.46000, 18.
16.49000, 22.
16.52000, 21.
16.55000, 24.
16.58000, 21.
16.61000, 24.
16.64000, 24.
16.67000, 20.
16.70000, 25.
16.73000, 27.
16.76000, 27.
16.79000, 22.
16.82000, 27.
16.85000, 26.
16.88000, 21.
16.91000, 22.
16.94000, 21.
16.97000, 18.
17.00000, 24.
17.03000, 22.
17.06000, 29.
17.09000, 26.
17.12000, 32.
17.15000, 30.
17.18000, 18.
17.21000, 24.
17.24000, 27.
17.27000, 30.
17.30000, 26.
17.33000, 22.
17.36000, 28.
17.39000, 22.
17.42000, 25.
17.45000, 16.
17.48000, 35.
17.51000, 32.
17.54000, 17.
17.57000, 30.
17.60000, 27.
17.63000, 24.
17.66000, 25.
17.69000, 27.
17.72000, 20.
17.75000, 18.
17.78000, 19.
17.81000, 32.
17.84000, 30.
17.87000, 21.
17.90000, 25.
17.93000, 22.
17.96000, 23.
17.99000, 29.
18.02000, 35.
18.05000, 25.
18.08000, 29.
18.11000, 32.
18.14000, 27.
18.17000, 26.
18.20000, 26.
18.23000, 43.
18.26000, 29.
18.29000, 32.
18.32000, 32.
18.35000, 34.
18.38000, 30.
18.41000, 38.
18.44000, 30.
18.47000, 35.
18.50000, 43.
18.53000, 47.
18.56000, 53.
18.59000, 59.
18.62000, 64.
18.65000, 48.
18.68000, 67.
18.71000, 56.
18.74000, 51.
18.77000, 51.
18.80000, 55.
18.83000, 52.
18.86000, 51.
18.89000, 37.
18.92000, 43.
18.95000, 45.
18.98000, 42.
19.01000, 35.
19.04000, 30.
19.07000, 31.
19.10000, 21.
19.13000, 21.
19.16000, 27.
19.19000, 20.
19.22000, 23.
19.25000, 24.
19.28000, 19.
19.31000, 22.
19.34000, 26.
19.37000, 18.
19.40000, 16.
19.43000, 21.
19.46000, 31.
19.49000, 18.
19.52000, 22.
19.55000, 26.
19.58000, 22.
19.61000, 20.
19.64000, 27.
19.67000, 16.
19.70000, 24.
19.73000, 23.
19.76000, 18.
19.79000, 23.
19.82000, 12.
19.85000, 21.
19.88000, 19.
19.91000, 18.
19.94000, 22.
19.97000, 27.
20.00000, 28.
20.03000, 35.
20.06000, 31.
20.09000, 39.
20.12000, 38.
20.15000, 23.
20.18000, 40.
20.21000, 35.
20.24000, 36.
20.27000, 28.
20.30000, 27.
20.33000, 17.
20.36000, 21.
20.39000, 12.
20.42000, 24.
20.45000, 24.
20.48000, 18.
20.51000, 21.
20.54000, 17.
20.57000, 16.
20.60000, 20.
20.63000, 20.
20.66000, 19.
20.69000, 17.
20.72000, 19.
20.75000, 14.
20.78000, 20.
20.81000, 17.
20.84000, 18.
20.87000, 18.
20.90000, 21.
20.93000, 18.
20.96000, 19.
20.99000, 22.
21.02000, 17.
21.05000, 17.
21.08000, 18.
21.11000, 24.
21.14000, 20.
21.17000, 14.
21.20000, 15.
21.23000, 15.
21.26000, 18.
21.29000, 14.
21.32000, 18.
21.35000, 13.
21.38000, 14.
21.41000, 10.
21.44000, 21.
21.47000, 18.
21.50000, 9.
21.53000, 9.
21.56000, 10.
21.59000, 18.
21.62000, 20.
21.65000, 13.
21.68000, 6.
21.71000, 9.
21.74000, 16.
21.77000, 17.
21.80000, 9.
21.83000, 10.
21.86000, 10.
21.89000, 13.
21.92000, 7.
21.95000, 13.
21.98000, 9.
22.01000, 12.
22.04000, 10.
22.07000, 18.
22.10000, 12.
22.13000, 22.
22.16000, 12.
22.19000, 15.
22.22000, 10.
22.25000, 9.
22.28000, 13.
22.31000, 7.
22.34000, 10.
22.37000, 10.
22.40000, 9.
22.43000, 12.
22.46000, 8.
22.49000, 7.
22.52000, 5.
22.55000, 11.
22.58000, 16.
22.61000, 14.
22.64000, 20.
22.67000, 16.
22.70000, 15.
22.73000, 15.
22.76000, 15.
22.79000, 14.
22.82000, 12.
22.85000, 9.
22.88000, 15.
22.91000, 18.
22.94000, 7.
22.97000, 11.
23.00000, 13.
23.03000, 4.
23.06000, 11.
23.09000, 6.
23.12000, 8.
23.15000, 8.
23.18000, 13.
23.21000, 9.
23.24000, 12.
23.27000, 11.
23.30000, 9.
23.33000, 5.
23.36000, 3.
23.39000, 12.
23.42000, 12.
23.45000, 8.
23.48000, 6.
23.51000, 4.
23.54000, 10.
23.57000, 6.
23.60000, 8.
23.63000, 10.
23.66000, 10.
23.69000, 11.
23.72000, 7.
23.75000, 8.
23.78000, 3.
23.81000, 9.
23.84000, 10.
23.87000, 6.
23.90000, 8.
23.93000, 10.
23.96000, 8.
23.99000, 4.
24.02000, 4.
24.05000, 2.
24.08000, 3.
24.11000, 11.
24.14000, 8.
24.17000, 6.
24.20000, 4.
24.23000, 8.
24.26000, 8.
24.29000, 4.
24.32000, 4.
24.35000, 5.
24.38000, 2.
24.41000, 2.
24.44000, 8.
24.47000, 11.
24.50000, 7.
24.53000, 7.
24.56000, 4.
24.59000, 3.
24.62000, 4.
24.65000, 3.
24.68000, 4.
24.71000, 0.
24.74000, 4.
24.77000, 5.
24.80000, 5.
24.83000, 8.
24.86000, 2.
24.89000, 6.
24.92000, 5.
24.95000, 5.
24.98000, 10.
25.01000, 6.
25.04000, 4.
25.07000, 6.
25.10000, 6.
25.13000, 2.
25.16000, 5.
25.19000, 7.
25.22000, 3.
25.25000, 5.
25.28000, 6.
25.31000, 5.
25.34000, 5.
25.37000, 3.
25.40000, 4.
25.43000, 6.
25.46000, 2.
25.49000, 5.
25.52000, 4.
25.55000, 4.
25.58000, 2.
25.61000, 3.
25.64000, 3.
25.67000, 2.
25.70000, 2.
25.73000, 3.
25.76000, 4.
25.79000, 4.
25.82000, 3.
25.85000, 3.
25.88000, 2.
25.91000, 2.
25.94000, 7.
25.97000, 2.
26.00000, 3.
26.03000, 4.
26.06000, 2.
26.09000, 5.
26.12000, 6.
26.15000, 4.
26.18000, 1.
26.21000, 4.
26.24000, 3.
26.27000, 3.
26.30000, 2.
26.33000, 2.
26.36000, 3.
26.39000, 3.
26.42000, 2.
26.45000, 3.
26.48000, 1.
26.51000, 2.
26.54000, 1.
26.57000, 1.
26.60000, 5.
26.63000, 2.
26.66000, 2.
26.69000, 0.
26.72000, 0.
26.75000, 1.
26.78000, 1.
26.81000, 2.
26.84000, 2.
26.87000, 0.
26.90000, 4.
26.93000, 0.
26.96000, 0.
26.99000, 0.
27.02000, 4.
27.05000, 1.
27.08000, 2.
27.11000, 0.
27.14000, 1.
27.17000, 0.
27.20000, 1.
27.23000, 0.
27.26000, 0.
27.29000, 1.
27.32000, 0.
27.35000, 1.
27.38000, 1.
27.41000, 0.
27.44000, 0.
27.47000, 0.
27.50000, 0.
27.53000, 0.
27.56000, 1.
27.59000, 0.
27.62000, 0.
27.65000, 0.
27.68000, 1.
27.71000, 0.
27.74000, 0.
27.77000, 0.
27.80000, 0.
27.83000, 1.
27.86000, 0.
27.89000, 1.
27.92000, 1.
27.95000, 1.
27.98000, 2.
28.01000, 0.
28.04000, 0.
28.07000, 0.
28.10000, 0.
28.13000, 0.
28.16000, 1.
28.19000, 1.
28.22000, 1.
28.25000, 2.
28.28000, 0.
28.31000, 0.
28.34000, 0.
28.37000, 0.
28.40000, 0.
28.43000, 0.
28.46000, 0.
28.49000, 1.
28.52000, 0.
28.55000, 1.
28.58000, 0.
28.61000, 1.
28.64000, 0.
28.67000, 0.
28.70000, 0.
28.73000, 0.
28.76000, 0.
28.79000, 0.
28.82000, 0.
28.85000, 0.
28.88000, 0.
28.91000, 0.
28.94000, 0.
28.97000, 0.
29.00000, 0.
29.03000, 0.
29.06000, 0.
29.09000, 0.
29.12000, 0.
29.15000, 0.
29.18000, 0.
29.21000, 0.
29.24000, 0.
29.27000, 0.
29.30000, 0.
29.33000, 0.
29.36000, 0.
29.39000, 1.
29.42000, 0.
29.45000, 0.
29.48000, 0.
29.51000, 1.
29.54000, 0.
29.57000, 0.
29.60000, 0.
29.63000, 0.
29.66000, 0.
29.69000, 0.
29.72000, 0.
29.75000, 0.
29.78000, 0.
29.81000, 0.
29.84000, 0.
29.87000, 0.
29.90000, 0.
29.93000, 0.
29.96000, 0.
29.99000, 0.
30.02000, 0.
30.05000, 0.
30.08000, 0.
30.11000, 0.
30.14000, 0.
30.17000, 0.
30.20000, 0.
30.23000, 0.
30.26000, 0.
30.29000, 0.
30.32000, 0.
30.35000, 0.
30.38000, 0.
30.41000, 0.
30.44000, 0.
30.47000, 0.
30.50000, 0.
30.53000, 0.
30.56000, 0.
30.59000, 0.
30.62000, 0.
30.65000, 0.
30.68000, 0.
30.71000, 0.
30.74000, 0.
30.77000, 0.
30.80000, 0.
30.83000, 0.
30.86000, 0.
30.89000, 0.
30.92000, 0.
30.95000, 0.
30.98000, 0.
31.01000, 0.
31.04000, 0.
31.07000, 0.
31.10000, 0.
31.13000, 0.
31.16000, 0.
31.19000, 0.
31.22000, 0.
31.25000, 0.
31.28000, 0.
31.31000, 0.
31.34000, 0.
31.37000, 0.
31.40000, 0.
31.43000, 0.
31.46000, 0.
31.49000, 0.
31.52000, 0.
31.55000, 0.
31.58000, 0.
31.61000, 0.
31.64000, 0.
31.67000, 0.
31.70000, 0.
31.73000, 0.
31.76000, 0.
31.79000, 0.
31.82000, 0.
31.85000, 0.
31.88000, 0.
31.91000, 0.
31.94000, 0.
31.97000, 0.
32.00000, 0.
32.03000, 0.
32.06000, 0.
32.09000, 0.
32.12000, 0.
32.15000, 0.
32.18000, 0.
32.21000, 0.
32.24000, 0.
32.27000, 0.
32.30000, 0.
32.33000, 0.
32.36000, 0.
32.39000, 0.
32.42000, 0.
32.45000, 0.
32.48000, 0.
32.51000, 0.
32.54000, 0.
32.57000, 0.
32.60000, 0.
32.63000, 0.
32.66000, 0.
32.69000, 0.
32.72000, 0.
32.75000, 0.
32.78000, 0.
32.81000, 0.
32.84000, 0.
32.87000, 0.
32.90000, 0.
32.93000, 0.
32.96000, 0.
32.99000, 0.
33.02000, 0.
33.05000, 0.
33.08000, 0.
33.11000, 0.
33.14000, 0.
33.17000, 0.
33.20000, 0.
33.23000, 0.
33.26000, 0.
33.29000, 0.
33.32000, 0.
33.35000, 0.
33.38000, 0.
33.41000, 0.
33.44000, 0.
33.47000, 0.
33.50000, 0.
33.53000, 0.
33.56000, 0.
33.59000, 0.
33.62000, 0.
33.65000, 0.
33.68000, 0.
33.71000, 0.
33.74000, 0.
33.77000, 0.
33.80000, 0.
33.83000, 0.
33.86000, 0.
33.89000, 0.
33.92000, 0.
33.95000, 0.
33.98000, 0.
34.01000, 0.
34.04000, 0.
34.07000, 0.
34.10000, 0.
34.13000, 0.
34.16000, 0.
34.19000, 0.
34.22000, 0.
34.25000, 0.
34.28000, 0.
34.31000, 0.
34.34000, 0.
34.37000, 0.
34.40000, 0.
34.43000, 0.
34.46000, 0.
34.49000, 0.
34.52000, 0.
34.55000, 0.
34.58000, 0.
34.61000, 0.
34.64000, 0.
34.67000, 0.
34.70000, 0.
34.73000, 0.
34.76000, 0.
34.79000, 0.
34.82000, 0.
34.85000, 0.
34.88000, 1.
34.91000, 0.
34.94000, 0.
34.97000, 0.
35.00000, 0.
35.03000, 0.
35.06000, 0.
35.09000, 0.
35.12000, 0.
35.15000, 0.
35.18000, 0.
35.21000, 0.
35.24000, 0.
35.27000, 0.
35.30000, 1.
35.33000, 0.
35.36000, 0.
35.39000, 0.
35.42000, 0.
35.45000, 0.
35.48000, 0.
35.51000, 0.
35.54000, 0.
35.57000, 0.
35.60000, 0.
35.63000, 0.
35.66000, 0.
35.69000, 0.
35.72000, 0.
35.75000, 0.
35.78000, 0.
35.81000, 0.
35.84000, 0.
35.87000, 0.
35.90000, 0.
35.93000, 0.
35.96000, 0.
35.99000, 0.
36.02000, 0.
36.05000, 0.
36.08000, 0.
36.11000, 0.
36.14000, 0.
36.17000, 0.
36.20000, 0.
36.23000, 0.
36.26000, 0.
36.29000, 0.
36.32000, 0.
36.35000, 0.
36.38000, 0.
36.41000, 0.
36.44000, 0.
36.47000, 1.
36.50000, 0.
36.53000, 0.
36.56000, 0.
36.59000, 0.
36.62000, 0.
36.65000, 0.
36.68000, 0.
36.71000, 0.
36.74000, 0.
36.77000, 0.
36.80000, 0.
36.83000, 0.
36.86000, 0.
36.89000, 0.
36.92000, 0.
36.95000, 0.
36.98000, 0.
37.01000, 0.
37.04000, 0.
37.07000, 0.
37.10000, 0.
37.13000, 0.
37.16000, 0.
37.19000, 0.
37.22000, 0.
37.25000, 0.
37.28000, 0.
37.31000, 0.
37.34000, 0.
37.37000, 0.
37.40000, 0.
37.43000, 0.
37.46000, 0.
37.49000, 0.
37.52000, 0.
37.55000, 0.
37.58000, 0.
37.61000, 0.
37.64000, 0.
37.67000, 0.
37.70000, 0.
37.73000, 0.
37.76000, 0.
37.79000, 0.
37.82000, 0.
37.85000, 0.
37.88000, 0.
37.91000, 0.
37.94000, 0.
37.97000, 0.
38.00000, 0.
38.03000, 0.
38.06000, 0.
38.09000, 0.
38.12000, 0.
38.15000, 0.
38.18000, 0.
38.21000, 0.
38.24000, 0.
38.27000, 0.
38.30000, 0.
38.33000, 0.
38.36000, 0.
38.39000, 0.
38.42000, 0.
38.45000, 0.
38.48000, 0.
38.51000, 0.
38.54000, 0.
38.57000, 0.
38.60000, 0.
38.63000, 0.
38.66000, 0.
38.69000, 0.
38.72000, 0.
38.75000, 0.
38.78000, 0.
38.81000, 0.
38.84000, 0.
38.87000, 0.
38.90000, 0.
38.93000, 0.
38.96000, 0.
38.99000, 0.
39.02000, 0.
39.05000, 0.
39.08000, 0.
39.11000, 0.
39.14000, 0.
39.17000, 0.
39.20000, 0.
39.23000, 0.
39.26000, 0.
39.29000, 0.
39.32000, 0.
39.35000, 0.
39.38000, 0.
39.41000, 0.
39.44000, 0.
39.47000, 0.
39.50000, 0.
39.53000, 0.
39.56000, 0.
39.59000, 0.
39.62000, 0.
39.65000, 0.
39.68000, 0.
39.71000, 0.
39.74000, 0.
39.77000, 0.
39.80000, 0.
39.83000, 0.
39.86000, 0.
39.89000, 0.
39.92000, 0.
39.95000, 0.
39.98000, 0.
40.01000, 0.
40.04000, 0.
40.07000, 0.
40.10000, 0.
40.13000, 0.
40.16000, 0.
40.19000, 0.
40.22000, 0.
40.25000, 0.
40.28000, 0.
40.31000, 0.
40.34000, 0.
40.37000, 0.
40.40000, 0.
40.43000, 0.
40.46000, 0.
40.49000, 0.
40.52000, 0.
40.55000, 0.
#ENDOFDATA   :