File: sample_data/data/Cu.txt
#FORMAT      : EMSA/MAS Spectral Data File
#VERSION     : 1.0
#TITLE       : Spectrum 1
#DATE        : 25-NOV-2025
#TIME        : 13:29
#OWNER       : XGT7200
#NPOINTS     : 4096.
#NCOLUMNS    : 1.
#XUNITS      : keV
#YUNITS      : counts
#DATATYPE    : XY
#XPERCHAN    : 0.0100000
#OFFSET      : -0.400000
#SIGNALTYPE  : EDS
#CHOFFSET    : 40.0000
#LIVETIME    : 30
#REALTIME    : 37.3416
#BEAMKV      : 30.0000
#PROBECUR    : 1.00000E+006
#MAGCAM      : 100.000
#XTILTSTGE   : 0.0
#AZIMANGLE   : 0.0
#ELEVANGLE   : 45.0
#XPOSITION mm: 0.0000
#YPOSITION mm: 0.0000
#ZPOSITION mm: 0.0000
##OXINSTPT   : 4
##OXINSTSTROB: 71.42
#SPECTRUM    : Spectral Data Starts Here
-0.40000, 0.
-0.37000, 0.
-0.34000, 0.
-0.31000, 0.
-0.28000, 0.
-0.25000, 0.
-0.22000, 0.
-0.19000, 0.
-0.16000, 0.
-0.13000, 0.
-0.10000, 0.
-0.07000, 0.
-0.04000, 0.
-0.01000, 0.
0.02000, 0.
0.05000, 0.
0.08000, 0.
0.11000, 0.
0.14000, 0.
0.17000, 0.
0.20000, 0.
0.23000, 0.
0.26000, 0.
0.29000, 0.
0.32000, 0.
0.35000, 0.
0.38000, 0.
0.41000, 3.
0.44000, 5.
0.47000, 4.
0.50000, 1.
0.53000, 4.
0.56000, 3.
0.59000, 2.
0.62000, 3.
0.65000, 3.
0.68000, 4.
0.71000, 3.
0.74000, 2.
0.77000, 5.
0.80000, 9.
0.83000, 7.
0.86000, 16.
0.89000, 59.
0.92000, 61.
0.95000, 60.
0.98000, 36.
1.01000, 17.
1.04000, 7.
1.07000, 1.
1.10000, 5.
1.13000, 2.
1.16000, 1.
1.19000, 1.
1.22000, 3.
1.25000, 3.
1.28000, 7.
1.31000, 5.
1.34000, 3.
1.37000, 3.
1.40000, 4.
1.43000, 8.
1.46000, 8.
1.49000, 4.
1.52000, 10.
1.55000, 8.
1.58000, 6.
1.61000, 2.
1.64000, 2.
1.67000, 2.
1.70000, 4.
1.73000, 10.
1.76000, 8.
1.79000, 7.
1.82000, 3.
1.85000, 3.
1.88000, 4.
1.91000, 3.
1.94000, 7.
1.97000, 5.
2.00000, 4.
2.03000, 7.
2.06000, 2.
2.09000, 6.
2.12000, 4.
2.15000, 6.
2.18000, 5.
2.21000, 9.
2.24000, 8.
2.27000, 16.
2.30000, 29.
2.33000, 23.
2.36000, 16.
2.39000, 12.
2.42000, 7.
2.45000, 5.
2.48000, 6.
2.51000, 8.
2.54000, 5.
2.57000, 16.
2.60000, 19.
2.63000, 29.
2.66000, 47.
2.69000, 51.
2.72000, 37.
2.75000, 32.
2.78000, 26.
2.81000, 28.
2.84000, 30.
2.87000, 27.
2.90000, 20.
2.93000, 53.
2.96000, 72.
2.99000, 117.
3.02000, 138.
3.05000, 126.
3.08000, 74.
3.11000, 40.
3.14000, 17.
3.17000, 9.
3.20000, 9.
3.23000, 7.
3.26000, 11.
3.29000, 11.
3.32000, 7.
3.35000, 8.
3.38000, 7.
3.41000, 17.
3.44000, 14.
3.47000, 20.
3.50000, 28.
3.53000, 14.
3.56000, 13.
3.59000, 8.
3.62000, 8.
3.65000, 4.
3.68000, 9.
3.71000, 8.
3.74000, 9.
3.77000, 9.
3.80000, 10.
3.83000, 3.
3.86000, 6.
3.89000, 4.
3.92000, 1.
3.95000, 9.
3.98000, 6.
4.01000, 9.
4.04000, 6.
4.07000, 6.
4.10000, 5.
4.13000, 5.
4.16000, 5.
4.19000, 11.
4.22000, 4.
4.25000, 9.
4.28000, 9.
4.31000, 5.
4.34000, 9.
4.37000, 12.
4.40000, 10.
4.43000, 8.
4.46000, 8.
4.49000, 8.
4.52000, 3.
4.55000, 6.
4.58000, 11.
4.61000, 7.
4.64000, 7.
4.67000, 7.
4.70000, 8.
4.73000, 7.
4.76000, 7.
4.79000, 16.
4.82000, 23.
4.85000, 35.
4.88000, 65.
4.91000, 109.
4.94000, 103.
4.97000, 111.
5.00000, 88.
5.03000, 49.
5.06000, 33.
5.09000, 22.
5.12000, 18.
5.15000, 13.
5.18000, 9.
5.21000, 9.
5.24000, 12.
5.27000, 13.
5.30000, 14.
5.33000, 6.
5.36000, 12.
5.39000, 6.
5.42000, 14.
5.45000, 14.
5.48000, 11.
5.51000, 12.
5.54000, 11.
5.57000, 11.
5.60000, 20.
5.63000, 24.
5.66000, 27.
5.69000, 61.
5.72000, 82.
5.75000, 116.
5.78000, 157.
5.81000, 159.
5.84000, 129.
5.87000, 82.
5.90000, 53.
5.93000, 36.
5.96000, 31.
5.99000, 24.
6.02000, 30.
6.05000, 39.
6.08000, 26.
6.11000, 22.
6.14000, 26.
6.17000, 34.
6.20000, 55.
6.23000, 49.
6.26000, 89.
6.29000, 99.
6.32000, 87.
6.35000, 76.
6.38000, 48.
6.41000, 24.
6.44000, 27.
6.47000, 24.
6.50000, 29.
6.53000, 22.
6.56000, 19.
6.59000, 18.
6.62000, 23.
6.65000, 17.
6.68000, 19.
6.71000, 23.
6.74000, 23.
6.77000, 27.
6.80000, 24.
6.83000, 20.
6.86000, 25.
6.89000, 32.
6.92000, 42.
6.95000, 32.
6.98000, 37.
7.01000, 39.
7.04000, 42.
7.07000, 32.
7.10000, 32.
7.13000, 34.
7.16000, 36.
7.19000, 29.
7.22000, 34.
7.25000, 27.
7.28000, 30.
7.31000, 38.
7.34000, 38.
7.37000, 33.
7.40000, 33.
7.43000, 46.
7.46000, 74.
7.49000, 62.
7.52000, 104.
7.55000, 135.
7.58000, 169.
7.61000, 144.
7.64000, 182.
7.67000, 184.
7.70000, 179.
7.73000, 183.
7.76000, 213.
7.79000, 295.
7.82000, 422.
7.85000, 882.
7.88000, 2196.
7.91000, 5215.
7.94000, 11104.
7.97000, 19507.
8.00000, 27606.
8.03000, 32661.
8.06000, 31466.
8.09000, 24849.
8.12000, 16046.
8.15000, 8512.
8.18000, 3696.
8.21000, 1413.
8.24000, 483.
8.27000, 174.
8.30000, 97.
8.33000, 82.
8.36000, 76.
8.39000, 76.
8.42000, 92.
8.45000, 90.
8.48000, 75.
8.51000, 102.
8.54000, 98.
8.57000, 98.
8.60000, 119.
8.63000, 162.
8.66000, 143.
8.69000, 243.
8.72000, 297.
8.75000, 640.
8.78000, 1285.
8.81000, 2110.
8.84000, 3287.
8.87000, 4377.
8.90000, 4603.
8.93000, 4336.
8.96000, 3179.
8.99000, 2125.
9.02000, 1140.
9.05000, 509.
9.08000, 198.
9.11000, 64.
9.14000, 33.
9.17000, 5.
9.20000, 2.
9.23000, 5.
9.26000, 4.
9.29000, 3.
9.32000, 4.
9.35000, 0.
9.38000, 4.
9.41000, 6.
9.44000, 1.
9.47000, 4.
9.50000, 4.
9.53000, 4.
9.56000, 0.
9.59000, 1.
9.62000, 5.
9.65000, 0.
9.68000, 2.
9.71000, 2.
9.74000, 7.
9.77000, 7.
9.80000, 5.
9.83000, 6.
9.86000, 8.
9.89000, 4.
9.92000, 3.
9.95000, 9.
9.98000, 6.
10.01000, 2.
10.04000, 4.
10.07000, 4.
10.10000, 4.
10.13000, 6.
10.16000, 6.
10.19000, 7.
10.22000, 16.
10.25000, 3.
10.28000, 11.
10.31000, 7.
10.34000, 14.
10.37000, 11.
10.40000, 15.
10.43000, 17.
10.46000, 15.
10.49000, 6.
10.52000, 9.
10.55000, 5.
10.58000, 11.
10.61000, 4.
10.64000, 10.
10.67000, 10.
10.70000, 6.
10.73000, 1.
10.76000, 3.
10.79000, 4.
10.82000, 5.
10.85000, 7.
10.88000, 4.
10.91000, 2.
10.94000, 4.
10.97000, 7.
11.00000, 10.
11.03000, 4.
11.06000, 3.
11.09000, 7.
11.12000, 6.
11.15000, 5.
11.18000, 7.
11.21000, 5.
11.24000, 9.
11.27000, 9.
11.30000, 4.
11.33000, 10.
11.36000, 1.
11.39000, 3.
11.42000, 5.
11.45000, 10.
11.48000, 5.
11.51000, 7.
11.54000, 2.
11.57000, 5.
11.60000, 2.
11.63000, 7.
11.66000, 3.
11.69000, 7.
11.72000, 4.
11.75000, 4.
11.78000, 1.
11.81000, 8.
11.84000, 1.
11.87000, 5.
11.90000, 6.
11.93000, 4.
11.96000, 5.
11.99000, 8.
12.02000, 6.
12.05000, 3.
12.08000, 4.
12.11000, 7.
12.14000, 7.
12.17000, 2.
12.20000, 3.
12.23000, 7.
12.26000, 6.
12.29000, 5.
12.32000, 4.
12.35000, 6.
12.38000, 6.
12.41000, 5.
12.44000, 9.
12.47000, 8.
12.50000, 2.
12.53000, 7.
12.56000, 5.
12.59000, 11.
12.62000, 7.
12.65000, 8.
12.68000, 5.
12.71000, 9.
12.74000, 2.
12.77000, 6.
12.80000, 7.
12.83000, 5.
12.86000, 3.
12.89000, 4.
12.92000, 8.
12.95000, 8.
12.98000, 8.
13.01000, 9.
13.04000, 8.
13.07000, 11.
13.10000, 9.
13.13000, 5.
13.16000, 8.
13.19000, 6.
13.22000, 10.
13.25000, 3.
13.28000, 5.
13.31000, 6.
13.34000, 5.
13.37000, 9.
13.40000, 7.
13.43000, 4.
13.46000, 8.
13.49000, 13.
13.52000, 7.
13.55000, 8.
13.58000, 3.
13.61000, 3.
13.64000, 5.
13.67000, 7.
13.70000, 7.
13.73000, 3.
13.76000, 8.
13.79000, 5.
13.82000, 7.
13.85000, 5.
13.88000, 1.
13.91000, 2.
13.94000, 3.
13.97000, 8.
14.00000, 5.
14.03000, 7.
14.06000, 4.
14.09000, 4.
14.12000, 6.
14.15000, 3.
14.18000, 5.
14.21000, 8.
14.24000, 5.
14.27000, 8.
14.30000, 10.
14.33000, 3.
14.36000, 5.
14.39000, 6.
14.42000, 3.
14.45000, 5.
14.48000, 5.
14.51000, 4.
14.54000, 4.
14.57000, 4.
14.60000, 9.
14.63000, 6.
14.66000, 1.
14.69000, 4.
14.72000, 4.
14.75000, 3.
14.78000, 2.
14.81000, 4.
14.84000, 10.
14.87000, 3.
14.90000, 5.
14.93000, 1.
14.96000, 2.
14.99000, 3.
15.02000, 4.
15.05000, 5.
15.08000, 5.
15.11000, 9.
15.14000, 7.
15.17000, 7.
15.20000, 8.
15.23000, 5.
15.26000, 4.
15.29000, 9.
15.32000, 6.
15.35000, 6.
15.38000, 3.
15.41000, 8.
15.44000, 5.
15.47000, 6.
15.50000, 3.
15.53000, 4.
15.56000, 3.
15.59000, 5.
15.62000, 3.
15.65000, 6.
15.68000, 10.
15.71000, 12.
15.74000, 5.
15.77000, 7.
15.80000, 10.
15.83000, 9.
15.86000, 20.
15.89000, 28.
15.92000, 49.
15.95000, 77.
15.98000, 81.
16.01000, 129.
16.04000, 178.
16.07000, 153.
16.10000, 187.
16.13000, 152.
16.16000, 128.
16.19000, 96.
16.22000, 52.
16.25000, 33.
16.28000, 12.
16.31000, 6.
16.34000, 7.
16.37000, 7.
16.40000, 6.
16.43000, 4.
16.46000, 8.
16.49000, 8.
16.52000, 4.
16.55000, 10.
16.58000, 6.
16.61000, 7.
16.64000, 5.
16.67000, 3.
16.70000, 5.
16.73000, 7.
16.76000, 9.
16.79000, 17.
16.82000, 26.
16.85000, 24.
16.88000, 35.
16.91000, 53.
16.94000, 52.
16.97000, 57.
17.00000, 36.
17.03000, 24.
17.06000, 34.
17.09000, 18.
17.12000, 13.
17.15000, 4.
17.18000, 5.
17.21000, 5.
17.24000, 4.
17.27000, 1.
17.30000, 5.
17.33000, 7.
17.36000, 3.
17.39000, 6.
17.42000, 4.
17.45000, 10.
17.48000, 3.
17.51000, 1.
17.54000, 3.
17.57000, 7.
17.60000, 4.
17.63000, 6.
17.66000, 9.
17.69000, 5.
17.72000, 6.
17.75000, 5.
17.78000, 5.
17.81000, 13.
17.84000, 7.
17.87000, 9.
17.90000, 7.
17.93000, 6.
17.96000, 4.
17.99000, 7.
18.02000, 2.
18.05000, 3.
18.08000, 6.
18.11000, 2.
18.14000, 4.
18.17000, 6.
18.20000, 2.
18.23000, 7.
18.26000, 2.
18.29000, 6.
18.32000, 6.
18.35000, 8.
18.38000, 3.
18.41000, 4.
18.44000, 7.
18.47000, 4.
18.50000, 8.
18.53000, 4.
18.56000, 7.
18.59000, 4.
18.62000, 4.
18.65000, 8.
18.68000, 9.
18.71000, 8.
18.74000, 6.
18.77000, 2.
18.80000, 5.
18.83000, 1.
18.86000, 4.
18.89000, 9.
18.92000, 5.
18.95000, 7.
18.98000, 4.
19.01000, 3.
19.04000, 5.
19.07000, 4.
19.10000, 4.
19.13000, 1.
19.16000, 4.
19.19000, 5.
19.22000, 4.
19.25000, 6.
19.28000, 3.
19.31000, 7.
19.34000, 3.
19.37000, 3.
19.40000, 3.
19.43000, 9.
19.46000, 2.
19.49000, 2.
19.52000, 2.
19.55000, 3.
19.58000, 3.
19.61000, 1.
19.64000, 8.
19.67000, 6.
19.70000, 4.
19.73000, 2.
19.76000, 3.
19.79000, 3.
19.82000, 7.
19.85000, 2.
19.88000, 6.
19.91000, 3.
19.94000, 3.
19.97000, 4.
20.00000, 6.
20.03000, 7.
20.06000, 12.
20.09000, 11.
20.12000, 21.
20.15000, 21.
20.18000, 11.
20.21000, 15.
20.24000, 11.
20.27000, 11.
20.30000, 4.
20.33000, 8.
20.36000, 5.
20.39000, 3.
20.42000, 5.
20.45000, 2.
20.48000, 1.
20.51000, 2.
20.54000, 5.
20.57000, 3.
20.60000, 5.
20.63000, 4.
20.66000, 5.
20.69000, 3.
20.72000, 2.
20.75000, 4.
20.78000, 4.
20.81000, 2.
20.84000, 4.
20.87000, 7.
20.90000, 2.
20.93000, 3.
20.96000, 0.
20.99000, 3.
21.02000, 2.
21.05000, 3.
21.08000, 5.
21.11000, 3.
21.14000, 2.
21.17000, 3.
21.20000, 2.
21.23000, 2.
21.26000, 3.
21.29000, 1.
21.32000, 1.
21.35000, 1.
21.38000, 2.
21.41000, 3.
21.44000, 2.
21.47000, 1.
21.50000, 2.
21.53000, 1.
21.56000, 0.
21.59000, 2.
21.62000, 1.
21.65000, 1.
21.68000, 2.
21.71000, 3.
21.74000, 1.
21.77000, 1.
21.80000, 3.
21.83000, 0.
21.86000, 3.
21.89000, 3.
21.92000, 1.
21.95000, 1.
21.98000, 2.
22.01000, 0.
22.04000, 1.
22.07000, 3.
22.10000, 1.
22.13000, 1.
22.16000, 2.
22.19000, 2.
22.22000, 4.
22.25000, 0.
22.28000, 0.
22.31000, 0.
22.34000, 1.
22.37000, 1.
22.40000, 1.
22.43000, 0.
22.46000, 1.
22.49000, 1.
22.52000, 1.
22.55000, 1.
22.58000, 3.
22.61000, 2.
22.64000, 0.
22.67000, 1.
22.70000, 3.
22.73000, 3.
22.76000, 4.
22.79000, 5.
22.82000, 1.
22.85000, 1.
22.88000, 3.
22.91000, 0.
22.94000, 0.
22.97000, 1.
23.00000, 2.
23.03000, 2.
23.06000, 2.
23.09000, 2.
23.12000, 7.
23.15000, 2.
23.18000, 2.
23.21000, 4.
23.24000, 2.
23.27000, 1.
23.30000, 1.
23.33000, 1.
23.36000, 3.
23.39000, 2.
23.42000, 4.
23.45000, 4.
23.48000, 3.
23.51000, 2.
23.54000, 0.
23.57000, 1.
23.60000, 0.
23.63000, 1.
23.66000, 2.
23.69000, 1.
23.72000, 2.
23.75000, 1.
23.78000, 2.
23.81000, 1.
23.84000, 0.
23.87000, 1.
23.90000, 2.
23.93000, 0.
23.96000, 1.
23.99000, 2.
24.02000, 1.
24.05000, 1.
24.08000, 3.
24.11000, 1.
24.14000, 3.
24.17000, 0.
24.20000, 1.
24.23000, 5.
24.26000, 3.
24.29000, 0.
24.32000, 2.
24.35000, 1.
24.38000, 1.
24.41000, 2.
24.44000, 0.
24.47000, 0.
24.50000, 1.
24.53000, 0.
24.56000, 0.
24.59000, 3.
24.62000, 2.
24.65000, 0.
24.68000, 2.
24.71000, 0.
24.74000, 0.
24.77000, 1.
24.80000, 1.
24.83000, 0.
24.86000, 0.
24.89000, 3.
24.92000, 0.
24.95000, 2.
24.98000, 0.
25.01000, 0.
25.04000, 1.
25.07000, 2.
25.10000, 1.
25.13000, 0.
25.16000, 2.
25.19000, 0.
25.22000, 1.
25.25000, 0.
25.28000, 2.
25.31000, 0.
25.34000, 1.
25.37000, 1.
25.40000, 1.
25.43000, 2.
25.46000, 1.
25.49000, 0.
25.52000, 1.
25.55000, 0.
25.58000, 1.
25.61000, 1.
25.64000, 0.
25.67000, 0.
25.70000, 0.
25.73000, 0.
25.76000, 0.
25.79000, 0.
25.82000, 2.
25.85000, 2.
25.88000, 0.
25.91000, 1.
25.94000, 1.
25.97000, 0.
26.00000, 0.
26.03000, 0.
26.06000, 1.
26.09000, 1.
26.12000, 0.
26.15000, 0.
26.18000, 1.
26.21000, 2.
26.24000, 2.
26.27000, 0.
26.30000, 1.
26.33000, 0.
26.36000, 2.
26.39000, 0.
26.42000, 0.
26.45000, 0.
26.48000, 1.
26.51000, 0.
26.54000, 0.
26.57000, 0.
26.60000, 0.
26.63000, 0.
26.66000, 0.
26.69000, 0.
26.72000, 1.
26.75000, 0.
26.78000, 1.
26.81000, 0.
26.84000, 0.
26.87000, 1.
26.90000, 0.
26.93000, 0.
26.96000, 0.
26.99000, 1.
27.02000, 1.
27.05000, 0.
27.08000, 0.
27.11000, 1.
27.14000, 0.
27.17000, 1.
27.20000, 0.
27.23000, 0.
27.26000, 0.
27.29000, 1.
27.32000, 0.
27.35000, 0.
27.38000, 0.
27.41000, 1.
27.44000, 0.
27.47000, 1.
27.50000, 0.
27.53000, 0.
27.56000, 0.
27.59000, 0.
27.62000, 0.
27.65000, 0.
27.68000, 0.
27.71000, 0.
27.74000, 0.
27.77000, 0.
27.80000, 0.
27.83000, 1.
27.86000, 0.
27.89000, 0.
27.92000, 0.
27.95000, 0.
27.98000, 1.
28.01000, 0.
28.04000, 0.
28.07000, 0.
28.10000, 0.
28.13000, 0.
28.16000, 0.
28.19000, 0.
28.22000, 0.
28.25000, 0.
28.28000, 1.
28.31000, 1.
28.34000, 0.
28.37000, 0.
28.40000, 0.
28.43000, 0.
28.46000, 1.
28.49000, 0.
28.52000, 1.
28.55000, 0.
28.58000, 0.
28.61000, 0.
28.64000, 0.
28.67000, 1.
28.70000, 0.
28.73000, 0.
28.76000, 0.
28.79000, 2.
28.82000, 0.
28.85000, 0.
28.88000, 0.
28.91000, 0.
28.94000, 0.
28.97000, 0.
29.00000, 0.
29.03000, 0.
29.06000, 0.
29.09000, 0.
29.12000, 0.
29.15000, 0.
29.18000, 0.
29.21000, 0.
29.24000, 0.
29.27000, 0.
29.30000, 0.
29.33000, 0.
29.36000, 1.
29.39000, 1.
29.42000, 1.
29.45000, 0.
29.48000, 0.
29.51000, 0.
29.54000, 0.
29.57000, 0.
29.60000, 1.
29.63000, 0.
29.66000, 0.
29.69000, 0.
29.72000, 0.
29.75000, 0.
29.78000, 0.
29.81000, 0.
29.84000, 0.
29.87000, 0.
29.90000, 0.
29.93000, 0.
29.96000, 1.
29.99000, 1.
30.02000, 0.
30.05000, 0.
30.08000, 0.
30.11000, 0.
30.14000, 0.
30.17000, 0.
30.20000, 0.
30.23000, 0.
30.26000, 0.
30.29000, 0.
30.32000, 0.
30.35000, 0.
30.38000, 0.
30.41000, 0.
30.44000, 0.
30.47000, 0.
30.50000, 0.
30.53000, 0.
30.56000, 0.
30.59000, 0.
30.62000, 0.
30.65000, 0.
30.68000, 0.
30.71000, 0.
30.74000, 0.
30.77000, 0.
30.80000, 0.
30.83000, 0.
30.86000, 0.
30.89000, 0.
30.92000, 0.
30.95000, 0.
30.98000, 0.
31.01000, 0.
31.04000, 0.
31.07000, 0.
31.10000, 1.
31.13000, 0.
31.16000, 0.
31.19000, 1.
31.22000, 0.
31.25000, 0.
31.28000, 0.
31.31000, 0.
31.34000, 0.
31.37000, 0.
31.40000, 0.
31.43000, 0.
31.46000, 0.
31.49000, 0.
31.52000, 0.
31.55000, 0.
31.58000, 0.
31.61000, 0.
31.64000, 0.
31.67000, 0.
31.70000, 0.
31.73000, 0.
31.76000, 0.
31.79000, 0.
31.82000, 0.
31.85000, 0.
31.88000, 0.
31.91000, 0.
31.94000, 0.
31.97000, 0.
32.00000, 0.
32.03000, 0.
32.06000, 0.
32.09000, 0.
32.12000, 0.
32.15000, 0.
32.18000, 0.
32.21000, 0.
32.24000, 0.
32.27000, 0.
32.30000, 0.
32.33000, 0.
32.36000, 0.
32.39000, 0.
32.42000, 0.
32.45000, 0.
32.48000, 0.
32.51000, 0.
32.54000, 0.
32.57000, 0.
32.60000, 0.
32.63000, 0.
32.66000, 0.
32.69000, 1.
32.72000, 0.
32.75000, 0.
32.78000, 0.
32.81000, 0.
32.84000, 0.
32.87000, 0.
32.90000, 0.
32.93000, 0.
32.96000, 0.
32.99000, 0.
33.02000, 0.
33.05000, 0.
33.08000, 0.
33.11000, 0.
33.14000, 0.
33.17000, 0.
33.20000, 0.
33.23000, 0.
33.26000, 0.
33.29000, 0.
33.32000, 0.
33.35000, 0.
33.38000, 0.
33.41000, 0.
33.44000, 0.
33.47000, 0.
33.50000, 0.
33.53000, 0.
33.56000, 0.
33.59000, 0.
33.62000, 0.
33.65000, 0.
33.68000, 0.
33.71000, 0.
33.74000, 0.
33.77000, 0.
33.80000, 0.
33.83000, 0.
33.86000, 0.
33.89000, 0.
33.92000, 0.
33.95000, 0.
33.98000, 0.
34.01000, 0.
34.04000, 0.
34.07000, 0.
34.10000, 0.
34.13000, 0.
34.16000, 0.
34.19000, 0.
34.22000, 0.
34.25000, 0.
34.28000, 0.
34.31000, 0.
34.34000, 0.
34.37000, 1.
34.40000, 0.
34.43000, 0.
34.46000, 0.
34.49000, 0.
34.52000, 0.
34.55000, 0.
34.58000, 0.
34.61000, 0.
34.64000, 0.
34.67000, 0.
34.70000, 0.
34.73000, 0.
34.76000, 0.
34.79000, 0.
34.82000, 0.
34.85000, 0.
34.88000, 0.
34.91000, 0.
34.94000, 0.
34.97000, 0.
35.00000, 0.
35.03000, 0.
35.06000, 0.
35.09000, 0.
35.12000, 0.
35.15000, 0.
35.18000, 0.
35.21000, 0.
35.24000, 0.
35.27000, 0.
35.30000, 0.
35.33000, 0.
35.36000, 0.
35.39000, 0.
35.42000, 1.
35.45000, 0.
35.48000, 0.
35.51000, 0.
35.54000, 0.
35.57000, 0.
35.60000, 0.
35.63000, 0.
35.66000, 0.
35.69000, 0.
35.72000, 0.
35.75000, 0.
35.78000, 0.
35.81000, 0.
35.84000, 0.
35.87000, 0.
35.90000, 0.
35.93000, 0.
35.96000, 0.
35.99000, 0.
36.02000, 0.
36.05000, 0.
36.08000, 0.
36.11000, 0.
36.14000, 0.
36.17000, 0.
36.20000, 0.
36.23000, 0.
36.26000, 0.
36.29000, 0.
36.32000, 0.
36.35000, 0.
36.38000, 0.
36.41000, 0.
36.44000, 0.
36.47000, 0.
36.50000, 0.
36.53000, 0.
36.56000, 0.
36.59000, 0.
36.62000, 0.
36.65000, 0.
36.68000, 0.
36.71000, 0.
36.74000, 0.
36.77000, 0.
36.80000, 0.
36.83000, 0.
36.86000, 0.
36.89000, 0.
36.92000, 0.
36.95000, 0.
36.98000, 0.
37.01000, 0.
37.04000, 0.
37.07000, 0.
37.10000, 0.
37.13000, 0.
37.16000, 0.
37.19000, 0.
37.22000, 0.
37.25000, 0.
37.28000, 0.
37.31000, 0.
37.34000, 0.
37.37000, 0.
37.40000, 0.
37.43000, 0.
37.46000, 0.
37.49000, 0.
37.52000, 0.
37.55000, 0.
37.58000, 0.
37.61000, 0.
37.64000, 0.
37.67000, 0.
37.70000, 0.
37.73000, 0.
37.76000, 0.
37.79000, 0.
37.82000, 0.
37.85000, 0.
37.88000, 0.
37.91000, 0.
37.94000, 0.
37.97000, 0.
38.00000, 0.
38.03000, 0.
38.06000, 0.
38.09000, 0.
38.12000, 0.
38.15000, 0.
38.18000, 0.
38.21000, 0.
38.24000, 0.
38.27000, 0.
38.30000, 0.
38.33000, 0.
38.36000, 0.
38.39000, 0.
38.42000, 0.
38.45000, 0.
38.48000, 0.
38.51000, 0.
38.54000, 0.
38.57000, 0.
38.60000, 0.
38.63000, 0.
38.66000, 0.
38.69000, 0.
38.72000, 0.
38.75000, 0.
38.78000, 0.
38.81000, 0.
38.84000, 0.
38.87000, 0.
38.90000, 0.
38.93000, 0.
38.96000, 0.
38.99000, 0.
39.02000, 0.
39.05000, 0.
39.08000, 0.
39.11000, 0.
39.14000, 0.
39.17000, 0.
39.20000, 0.
39.23000, 0.
39.26000, 0.
39.29000, 0.
39.32000, 0.
39.35000, 0.
39.38000, 0.
39.41000, 0.
39.44000, 0.
39.47000, 0.
39.50000, 0.
39.53000, 0.
39.56000, 0.
39.59000, 0.
39.62000, 0.
39.65000, 0.
39.68000, 0.
39.71000, 0.
39.74000, 0.
39.77000, 0.
39.80000, 0.
39.83000, 0.
39.86000, 0.
39.89000, 0.
39.92000, 0.
39.95000, 0.
39.98000, 0.
40.01000, 0.
40.04000, 0.
40.07000, 0.
40.10000, 0.
40.13000, 0.
40.16000, 0.
40.19000, 0.
40.22000, 0.
40.25000, 0.
40.28000, 0.
40.31000, 0.
40.34000, 0.
40.37000, 0.
40.40000, 0.
40.43000, 0.
40.46000, 0.
40.49000, 0.
40.52000, 0.
40.55000, 0.
#ENDOFDATA   :