File: sample_data/data/cubic zirconia.txt
#FORMAT      : EMSA/MAS Spectral Data File
#VERSION     : 1.0
#TITLE       : Spectrum 1
#DATE        : 25-NOV-2025
#TIME        : 13:48
#OWNER       : XGT7200
#NPOINTS     : 4096.
#NCOLUMNS    : 1.
#XUNITS      : keV
#YUNITS      : counts
#DATATYPE    : XY
#XPERCHAN    : 0.0100000
#OFFSET      : -0.400000
#SIGNALTYPE  : EDS
#CHOFFSET    : 40.0000
#LIVETIME    : 30
#REALTIME    : 39.8817
#BEAMKV      : 30.0000
#PROBECUR    : 518000.
#MAGCAM      : 100.000
#XTILTSTGE   : 0.0
#AZIMANGLE   : 0.0
#ELEVANGLE   : 45.0
#XPOSITION mm: 0.0000
#YPOSITION mm: 0.0000
#ZPOSITION mm: 0.0000
##OXINSTPT   : 4
##OXINSTSTROB: 71.75
#SPECTRUM    : Spectral Data Starts Here
-0.40000, 0.
-0.37000, 0.
-0.34000, 0.
-0.31000, 0.
-0.28000, 0.
-0.25000, 0.
-0.22000, 0.
-0.19000, 0.
-0.16000, 0.
-0.13000, 0.
-0.10000, 0.
-0.07000, 0.
-0.04000, 0.
-0.01000, 0.
0.02000, 0.
0.05000, 0.
0.08000, 0.
0.11000, 0.
0.14000, 0.
0.17000, 0.
0.20000, 0.
0.23000, 0.
0.26000, 0.
0.29000, 0.
0.32000, 1.
0.35000, 6.
0.38000, 26.
0.41000, 48.
0.44000, 44.
0.47000, 56.
0.50000, 57.
0.53000, 32.
0.56000, 43.
0.59000, 56.
0.62000, 69.
0.65000, 58.
0.68000, 51.
0.71000, 63.
0.74000, 56.
0.77000, 57.
0.80000, 44.
0.83000, 46.
0.86000, 55.
0.89000, 60.
0.92000, 47.
0.95000, 40.
0.98000, 42.
1.01000, 38.
1.04000, 30.
1.07000, 23.
1.10000, 33.
1.13000, 27.
1.16000, 29.
1.19000, 24.
1.22000, 18.
1.25000, 27.
1.28000, 20.
1.31000, 18.
1.34000, 20.
1.37000, 23.
1.40000, 13.
1.43000, 26.
1.46000, 27.
1.49000, 30.
1.52000, 29.
1.55000, 25.
1.58000, 40.
1.61000, 67.
1.64000, 89.
1.67000, 124.
1.70000, 151.
1.73000, 187.
1.76000, 263.
1.79000, 335.
1.82000, 387.
1.85000, 588.
1.88000, 1027.
1.91000, 1648.
1.94000, 2104.
1.97000, 3138.
2.00000, 4924.
2.03000, 7084.
2.06000, 7352.
2.09000, 6014.
2.12000, 4355.
2.15000, 3067.
2.18000, 1853.
2.21000, 927.
2.24000, 488.
2.27000, 199.
2.30000, 124.
2.33000, 62.
2.36000, 37.
2.39000, 19.
2.42000, 21.
2.45000, 29.
2.48000, 31.
2.51000, 36.
2.54000, 35.
2.57000, 28.
2.60000, 16.
2.63000, 21.
2.66000, 28.
2.69000, 24.
2.72000, 37.
2.75000, 31.
2.78000, 21.
2.81000, 21.
2.84000, 25.
2.87000, 14.
2.90000, 6.
2.93000, 15.
2.96000, 14.
2.99000, 4.
3.02000, 5.
3.05000, 5.
3.08000, 1.
3.11000, 5.
3.14000, 5.
3.17000, 5.
3.20000, 4.
3.23000, 5.
3.26000, 6.
3.29000, 5.
3.32000, 6.
3.35000, 7.
3.38000, 4.
3.41000, 3.
3.44000, 6.
3.47000, 5.
3.50000, 6.
3.53000, 7.
3.56000, 11.
3.59000, 4.
3.62000, 9.
3.65000, 17.
3.68000, 16.
3.71000, 24.
3.74000, 12.
3.77000, 16.
3.80000, 4.
3.83000, 3.
3.86000, 7.
3.89000, 12.
3.92000, 6.
3.95000, 16.
3.98000, 13.
4.01000, 12.
4.04000, 17.
4.07000, 13.
4.10000, 18.
4.13000, 11.
4.16000, 16.
4.19000, 14.
4.22000, 15.
4.25000, 17.
4.28000, 18.
4.31000, 11.
4.34000, 9.
4.37000, 12.
4.40000, 16.
4.43000, 13.
4.46000, 10.
4.49000, 9.
4.52000, 8.
4.55000, 12.
4.58000, 14.
4.61000, 12.
4.64000, 8.
4.67000, 8.
4.70000, 11.
4.73000, 13.
4.76000, 15.
4.79000, 8.
4.82000, 14.
4.85000, 9.
4.88000, 11.
4.91000, 14.
4.94000, 14.
4.97000, 11.
5.00000, 9.
5.03000, 14.
5.06000, 7.
5.09000, 11.
5.12000, 11.
5.15000, 9.
5.18000, 19.
5.21000, 11.
5.24000, 8.
5.27000, 15.
5.30000, 12.
5.33000, 11.
5.36000, 13.
5.39000, 9.
5.42000, 13.
5.45000, 10.
5.48000, 20.
5.51000, 19.
5.54000, 20.
5.57000, 19.
5.60000, 27.
5.63000, 41.
5.66000, 90.
5.69000, 182.
5.72000, 325.
5.75000, 555.
5.78000, 716.
5.81000, 747.
5.84000, 581.
5.87000, 319.
5.90000, 158.
5.93000, 78.
5.96000, 35.
5.99000, 27.
6.02000, 19.
6.05000, 9.
6.08000, 23.
6.11000, 16.
6.14000, 20.
6.17000, 15.
6.20000, 23.
6.23000, 13.
6.26000, 12.
6.29000, 15.
6.32000, 26.
6.35000, 19.
6.38000, 21.
6.41000, 25.
6.44000, 21.
6.47000, 16.
6.50000, 19.
6.53000, 14.
6.56000, 20.
6.59000, 22.
6.62000, 27.
6.65000, 14.
6.68000, 18.
6.71000, 30.
6.74000, 24.
6.77000, 19.
6.80000, 26.
6.83000, 28.
6.86000, 20.
6.89000, 20.
6.92000, 30.
6.95000, 39.
6.98000, 37.
7.01000, 27.
7.04000, 44.
7.07000, 23.
7.10000, 21.
7.13000, 33.
7.16000, 39.
7.19000, 29.
7.22000, 24.
7.25000, 28.
7.28000, 25.
7.31000, 30.
7.34000, 35.
7.37000, 28.
7.40000, 34.
7.43000, 41.
7.46000, 33.
7.49000, 27.
7.52000, 37.
7.55000, 28.
7.58000, 35.
7.61000, 36.
7.64000, 34.
7.67000, 31.
7.70000, 28.
7.73000, 60.
7.76000, 99.
7.79000, 137.
7.82000, 277.
7.85000, 335.
7.88000, 403.
7.91000, 417.
7.94000, 345.
7.97000, 294.
8.00000, 187.
8.03000, 113.
8.06000, 72.
8.09000, 52.
8.12000, 58.
8.15000, 56.
8.18000, 58.
8.21000, 64.
8.24000, 42.
8.27000, 46.
8.30000, 48.
8.33000, 55.
8.36000, 53.
8.39000, 55.
8.42000, 44.
8.45000, 56.
8.48000, 40.
8.51000, 41.
8.54000, 32.
8.57000, 30.
8.60000, 39.
8.63000, 34.
8.66000, 39.
8.69000, 36.
8.72000, 44.
8.75000, 41.
8.78000, 37.
8.81000, 48.
8.84000, 69.
8.87000, 87.
8.90000, 111.
8.93000, 199.
8.96000, 246.
8.99000, 253.
9.02000, 286.
9.05000, 305.
9.08000, 235.
9.11000, 185.
9.14000, 149.
9.17000, 115.
9.20000, 121.
9.23000, 135.
9.26000, 192.
9.29000, 184.
9.32000, 243.
9.35000, 266.
9.38000, 253.
9.41000, 221.
9.44000, 154.
9.47000, 101.
9.50000, 65.
9.53000, 69.
9.56000, 60.
9.59000, 71.
9.62000, 60.
9.65000, 52.
9.68000, 73.
9.71000, 70.
9.74000, 58.
9.77000, 74.
9.80000, 62.
9.83000, 56.
9.86000, 76.
9.89000, 56.
9.92000, 54.
9.95000, 63.
9.98000, 59.
10.01000, 39.
10.04000, 64.
10.07000, 46.
10.10000, 47.
10.13000, 66.
10.16000, 65.
10.19000, 52.
10.22000, 55.
10.25000, 35.
10.28000, 52.
10.31000, 62.
10.34000, 64.
10.37000, 59.
10.40000, 65.
10.43000, 74.
10.46000, 90.
10.49000, 107.
10.52000, 104.
10.55000, 82.
10.58000, 84.
10.61000, 67.
10.64000, 55.
10.67000, 49.
10.70000, 48.
10.73000, 49.
10.76000, 52.
10.79000, 58.
10.82000, 49.
10.85000, 66.
10.88000, 72.
10.91000, 55.
10.94000, 58.
10.97000, 59.
11.00000, 47.
11.03000, 54.
11.06000, 48.
11.09000, 44.
11.12000, 60.
11.15000, 64.
11.18000, 58.
11.21000, 55.
11.24000, 57.
11.27000, 57.
11.30000, 50.
11.33000, 61.
11.36000, 57.
11.39000, 71.
11.42000, 81.
11.45000, 106.
11.48000, 113.
11.51000, 116.
11.54000, 140.
11.57000, 158.
11.60000, 139.
11.63000, 155.
11.66000, 96.
11.69000, 94.
11.72000, 89.
11.75000, 81.
11.78000, 64.
11.81000, 58.
11.84000, 52.
11.87000, 54.
11.90000, 53.
11.93000, 43.
11.96000, 53.
11.99000, 56.
12.02000, 52.
12.05000, 43.
12.08000, 53.
12.11000, 39.
12.14000, 48.
12.17000, 56.
12.20000, 47.
12.23000, 40.
12.26000, 42.
12.29000, 34.
12.32000, 42.
12.35000, 42.
12.38000, 32.
12.41000, 38.
12.44000, 40.
12.47000, 47.
12.50000, 45.
12.53000, 40.
12.56000, 42.
12.59000, 36.
12.62000, 37.
12.65000, 35.
12.68000, 38.
12.71000, 37.
12.74000, 50.
12.77000, 44.
12.80000, 56.
12.83000, 54.
12.86000, 54.
12.89000, 62.
12.92000, 61.
12.95000, 64.
12.98000, 72.
13.01000, 63.
13.04000, 61.
13.07000, 61.
13.10000, 50.
13.13000, 52.
13.16000, 52.
13.19000, 47.
13.22000, 64.
13.25000, 60.
13.28000, 54.
13.31000, 46.
13.34000, 47.
13.37000, 52.
13.40000, 54.
13.43000, 50.
13.46000, 41.
13.49000, 34.
13.52000, 50.
13.55000, 62.
13.58000, 58.
13.61000, 50.
13.64000, 58.
13.67000, 51.
13.70000, 56.
13.73000, 55.
13.76000, 44.
13.79000, 50.
13.82000, 59.
13.85000, 65.
13.88000, 40.
13.91000, 50.
13.94000, 66.
13.97000, 59.
14.00000, 68.
14.03000, 83.
14.06000, 67.
14.09000, 78.
14.12000, 75.
14.15000, 65.
14.18000, 66.
14.21000, 52.
14.24000, 50.
14.27000, 73.
14.30000, 55.
14.33000, 59.
14.36000, 71.
14.39000, 64.
14.42000, 57.
14.45000, 74.
14.48000, 73.
14.51000, 75.
14.54000, 82.
14.57000, 80.
14.60000, 102.
14.63000, 160.
14.66000, 253.
14.69000, 427.
14.72000, 831.
14.75000, 1486.
14.78000, 2255.
14.81000, 3421.
14.84000, 4591.
14.87000, 5650.
14.90000, 6255.
14.93000, 6453.
14.96000, 5789.
14.99000, 4785.
15.02000, 3596.
15.05000, 2431.
15.08000, 1468.
15.11000, 781.
15.14000, 456.
15.17000, 286.
15.20000, 156.
15.23000, 141.
15.26000, 130.
15.29000, 112.
15.32000, 127.
15.35000, 157.
15.38000, 175.
15.41000, 223.
15.44000, 340.
15.47000, 669.
15.50000, 1192.
15.53000, 2243.
15.56000, 3777.
15.59000, 5937.
15.62000, 8642.
15.65000, 11587.
15.68000, 13962.
15.71000, 15747.
15.74000, 16071.
15.77000, 14748.
15.80000, 12279.
15.83000, 9330.
15.86000, 6508.
15.89000, 4100.
15.92000, 2326.
15.95000, 1177.
15.98000, 597.
16.01000, 309.
16.04000, 178.
16.07000, 119.
16.10000, 115.
16.13000, 79.
16.16000, 74.
16.19000, 62.
16.22000, 50.
16.25000, 59.
16.28000, 69.
16.31000, 58.
16.34000, 47.
16.37000, 53.
16.40000, 56.
16.43000, 78.
16.46000, 73.
16.49000, 107.
16.52000, 157.
16.55000, 232.
16.58000, 371.
16.61000, 561.
16.64000, 737.
16.67000, 959.
16.70000, 981.
16.73000, 1030.
16.76000, 870.
16.79000, 789.
16.82000, 557.
16.85000, 415.
16.88000, 307.
16.91000, 228.
16.94000, 227.
16.97000, 222.
17.00000, 192.
17.03000, 181.
17.06000, 146.
17.09000, 121.
17.12000, 93.
17.15000, 75.
17.18000, 56.
17.21000, 44.
17.24000, 40.
17.27000, 42.
17.30000, 50.
17.33000, 50.
17.36000, 71.
17.39000, 88.
17.42000, 172.
17.45000, 251.
17.48000, 436.
17.51000, 759.
17.54000, 1047.
17.57000, 1474.
17.60000, 1701.
17.63000, 1898.
17.66000, 1804.
17.69000, 1708.
17.72000, 1379.
17.75000, 1040.
17.78000, 793.
17.81000, 513.
17.84000, 385.
17.87000, 351.
17.90000, 317.
17.93000, 342.
17.96000, 310.
17.99000, 238.
18.02000, 217.
18.05000, 157.
18.08000, 104.
18.11000, 73.
18.14000, 35.
18.17000, 19.
18.20000, 12.
18.23000, 10.
18.26000, 4.
18.29000, 7.
18.32000, 6.
18.35000, 6.
18.38000, 2.
18.41000, 7.
18.44000, 3.
18.47000, 4.
18.50000, 8.
18.53000, 3.
18.56000, 4.
18.59000, 7.
18.62000, 2.
18.65000, 8.
18.68000, 8.
18.71000, 6.
18.74000, 11.
18.77000, 9.
18.80000, 12.
18.83000, 4.
18.86000, 5.
18.89000, 10.
18.92000, 8.
18.95000, 12.
18.98000, 8.
19.01000, 7.
19.04000, 9.
19.07000, 6.
19.10000, 9.
19.13000, 5.
19.16000, 5.
19.19000, 3.
19.22000, 4.
19.25000, 7.
19.28000, 6.
19.31000, 6.
19.34000, 5.
19.37000, 9.
19.40000, 6.
19.43000, 2.
19.46000, 3.
19.49000, 4.
19.52000, 8.
19.55000, 4.
19.58000, 4.
19.61000, 8.
19.64000, 10.
19.67000, 6.
19.70000, 12.
19.73000, 9.
19.76000, 10.
19.79000, 7.
19.82000, 5.
19.85000, 5.
19.88000, 3.
19.91000, 8.
19.94000, 4.
19.97000, 9.
20.00000, 9.
20.03000, 7.
20.06000, 14.
20.09000, 13.
20.12000, 13.
20.15000, 12.
20.18000, 11.
20.21000, 17.
20.24000, 8.
20.27000, 6.
20.30000, 7.
20.33000, 4.
20.36000, 1.
20.39000, 7.
20.42000, 5.
20.45000, 1.
20.48000, 2.
20.51000, 2.
20.54000, 4.
20.57000, 3.
20.60000, 1.
20.63000, 2.
20.66000, 6.
20.69000, 1.
20.72000, 1.
20.75000, 4.
20.78000, 2.
20.81000, 7.
20.84000, 1.
20.87000, 4.
20.90000, 2.
20.93000, 3.
20.96000, 2.
20.99000, 3.
21.02000, 3.
21.05000, 2.
21.08000, 3.
21.11000, 2.
21.14000, 6.
21.17000, 4.
21.20000, 0.
21.23000, 3.
21.26000, 5.
21.29000, 3.
21.32000, 5.
21.35000, 1.
21.38000, 3.
21.41000, 6.
21.44000, 3.
21.47000, 5.
21.50000, 3.
21.53000, 5.
21.56000, 5.
21.59000, 6.
21.62000, 7.
21.65000, 2.
21.68000, 6.
21.71000, 2.
21.74000, 5.
21.77000, 3.
21.80000, 3.
21.83000, 1.
21.86000, 1.
21.89000, 1.
21.92000, 3.
21.95000, 3.
21.98000, 1.
22.01000, 1.
22.04000, 0.
22.07000, 2.
22.10000, 4.
22.13000, 3.
22.16000, 4.
22.19000, 6.
22.22000, 1.
22.25000, 2.
22.28000, 3.
22.31000, 1.
22.34000, 1.
22.37000, 4.
22.40000, 3.
22.43000, 0.
22.46000, 3.
22.49000, 4.
22.52000, 2.
22.55000, 4.
22.58000, 3.
22.61000, 7.
22.64000, 5.
22.67000, 3.
22.70000, 0.
22.73000, 10.
22.76000, 7.
22.79000, 7.
22.82000, 4.
22.85000, 4.
22.88000, 1.
22.91000, 3.
22.94000, 2.
22.97000, 2.
23.00000, 2.
23.03000, 2.
23.06000, 6.
23.09000, 2.
23.12000, 3.
23.15000, 0.
23.18000, 4.
23.21000, 4.
23.24000, 2.
23.27000, 2.
23.30000, 2.
23.33000, 2.
23.36000, 6.
23.39000, 3.
23.42000, 1.
23.45000, 7.
23.48000, 4.
23.51000, 4.
23.54000, 1.
23.57000, 8.
23.60000, 3.
23.63000, 5.
23.66000, 5.
23.69000, 2.
23.72000, 1.
23.75000, 2.
23.78000, 2.
23.81000, 4.
23.84000, 0.
23.87000, 2.
23.90000, 2.
23.93000, 0.
23.96000, 5.
23.99000, 6.
24.02000, 6.
24.05000, 1.
24.08000, 3.
24.11000, 3.
24.14000, 2.
24.17000, 4.
24.20000, 1.
24.23000, 2.
24.26000, 3.
24.29000, 2.
24.32000, 2.
24.35000, 1.
24.38000, 0.
24.41000, 1.
24.44000, 2.
24.47000, 1.
24.50000, 4.
24.53000, 2.
24.56000, 3.
24.59000, 2.
24.62000, 3.
24.65000, 3.
24.68000, 2.
24.71000, 4.
24.74000, 4.
24.77000, 1.
24.80000, 4.
24.83000, 5.
24.86000, 3.
24.89000, 7.
24.92000, 2.
24.95000, 1.
24.98000, 5.
25.01000, 4.
25.04000, 4.
25.07000, 3.
25.10000, 5.
25.13000, 1.
25.16000, 1.
25.19000, 2.
25.22000, 4.
25.25000, 3.
25.28000, 2.
25.31000, 1.
25.34000, 6.
25.37000, 3.
25.40000, 0.
25.43000, 1.
25.46000, 3.
25.49000, 2.
25.52000, 2.
25.55000, 3.
25.58000, 0.
25.61000, 2.
25.64000, 1.
25.67000, 0.
25.70000, 0.
25.73000, 0.
25.76000, 4.
25.79000, 2.
25.82000, 1.
25.85000, 1.
25.88000, 1.
25.91000, 3.
25.94000, 0.
25.97000, 1.
26.00000, 1.
26.03000, 1.
26.06000, 0.
26.09000, 1.
26.12000, 5.
26.15000, 6.
26.18000, 2.
26.21000, 0.
26.24000, 2.
26.27000, 2.
26.30000, 1.
26.33000, 2.
26.36000, 2.
26.39000, 0.
26.42000, 6.
26.45000, 1.
26.48000, 2.
26.51000, 4.
26.54000, 1.
26.57000, 3.
26.60000, 3.
26.63000, 4.
26.66000, 1.
26.69000, 6.
26.72000, 3.
26.75000, 1.
26.78000, 1.
26.81000, 2.
26.84000, 4.
26.87000, 0.
26.90000, 4.
26.93000, 3.
26.96000, 1.
26.99000, 1.
27.02000, 2.
27.05000, 1.
27.08000, 1.
27.11000, 2.
27.14000, 0.
27.17000, 0.
27.20000, 1.
27.23000, 2.
27.26000, 0.
27.29000, 1.
27.32000, 0.
27.35000, 2.
27.38000, 0.
27.41000, 0.
27.44000, 4.
27.47000, 0.
27.50000, 0.
27.53000, 2.
27.56000, 1.
27.59000, 0.
27.62000, 1.
27.65000, 0.
27.68000, 2.
27.71000, 2.
27.74000, 2.
27.77000, 1.
27.80000, 0.
27.83000, 0.
27.86000, 3.
27.89000, 1.
27.92000, 1.
27.95000, 1.
27.98000, 0.
28.01000, 3.
28.04000, 2.
28.07000, 0.
28.10000, 1.
28.13000, 2.
28.16000, 2.
28.19000, 2.
28.22000, 1.
28.25000, 3.
28.28000, 4.
28.31000, 1.
28.34000, 2.
28.37000, 2.
28.40000, 1.
28.43000, 0.
28.46000, 2.
28.49000, 1.
28.52000, 0.
28.55000, 0.
28.58000, 2.
28.61000, 2.
28.64000, 2.
28.67000, 0.
28.70000, 0.
28.73000, 0.
28.76000, 1.
28.79000, 1.
28.82000, 1.
28.85000, 1.
28.88000, 1.
28.91000, 0.
28.94000, 2.
28.97000, 2.
29.00000, 1.
29.03000, 0.
29.06000, 0.
29.09000, 0.
29.12000, 0.
29.15000, 2.
29.18000, 1.
29.21000, 2.
29.24000, 0.
29.27000, 1.
29.30000, 3.
29.33000, 1.
29.36000, 0.
29.39000, 1.
29.42000, 2.
29.45000, 1.
29.48000, 1.
29.51000, 1.
29.54000, 6.
29.57000, 2.
29.60000, 3.
29.63000, 3.
29.66000, 4.
29.69000, 11.
29.72000, 12.
29.75000, 8.
29.78000, 5.
29.81000, 10.
29.84000, 12.
29.87000, 9.
29.90000, 16.
29.93000, 8.
29.96000, 4.
29.99000, 9.
30.02000, 3.
30.05000, 2.
30.08000, 5.
30.11000, 2.
30.14000, 1.
30.17000, 0.
30.20000, 2.
30.23000, 2.
30.26000, 1.
30.29000, 3.
30.32000, 4.
30.35000, 6.
30.38000, 12.
30.41000, 15.
30.44000, 15.
30.47000, 22.
30.50000, 27.
30.53000, 28.
30.56000, 33.
30.59000, 34.
30.62000, 54.
30.65000, 53.
30.68000, 48.
30.71000, 43.
30.74000, 43.
30.77000, 24.
30.80000, 28.
30.83000, 24.
30.86000, 13.
30.89000, 9.
30.92000, 10.
30.95000, 7.
30.98000, 5.
31.01000, 5.
31.04000, 5.
31.07000, 3.
31.10000, 2.
31.13000, 2.
31.16000, 3.
31.19000, 10.
31.22000, 18.
31.25000, 27.
31.28000, 26.
31.31000, 38.
31.34000, 34.
31.37000, 45.
31.40000, 56.
31.43000, 58.
31.46000, 70.
31.49000, 64.
31.52000, 54.
31.55000, 52.
31.58000, 42.
31.61000, 42.
31.64000, 37.
31.67000, 18.
31.70000, 15.
31.73000, 8.
31.76000, 5.
31.79000, 2.
31.82000, 0.
31.85000, 0.
31.88000, 1.
31.91000, 2.
31.94000, 0.
31.97000, 0.
32.00000, 2.
32.03000, 2.
32.06000, 2.
32.09000, 1.
32.12000, 0.
32.15000, 0.
32.18000, 3.
32.21000, 1.
32.24000, 3.
32.27000, 6.
32.30000, 8.
32.33000, 10.
32.36000, 10.
32.39000, 14.
32.42000, 7.
32.45000, 12.
32.48000, 10.
32.51000, 14.
32.54000, 14.
32.57000, 13.
32.60000, 8.
32.63000, 9.
32.66000, 6.
32.69000, 8.
32.72000, 9.
32.75000, 7.
32.78000, 7.
32.81000, 5.
32.84000, 4.
32.87000, 1.
32.90000, 2.
32.93000, 1.
32.96000, 1.
32.99000, 1.
33.02000, 4.
33.05000, 3.
33.08000, 1.
33.11000, 2.
33.14000, 3.
33.17000, 4.
33.20000, 6.
33.23000, 7.
33.26000, 10.
33.29000, 13.
33.32000, 11.
33.35000, 22.
33.38000, 14.
33.41000, 17.
33.44000, 8.
33.47000, 8.
33.50000, 10.
33.53000, 9.
33.56000, 3.
33.59000, 6.
33.62000, 5.
33.65000, 4.
33.68000, 7.
33.71000, 1.
33.74000, 4.
33.77000, 1.
33.80000, 2.
33.83000, 3.
33.86000, 2.
33.89000, 2.
33.92000, 0.
33.95000, 1.
33.98000, 0.
34.01000, 1.
34.04000, 1.
34.07000, 0.
34.10000, 0.
34.13000, 1.
34.16000, 0.
34.19000, 2.
34.22000, 2.
34.25000, 0.
34.28000, 0.
34.31000, 4.
34.34000, 0.
34.37000, 0.
34.40000, 0.
34.43000, 0.
34.46000, 1.
34.49000, 0.
34.52000, 0.
34.55000, 3.
34.58000, 1.
34.61000, 0.
34.64000, 0.
34.67000, 0.
34.70000, 0.
34.73000, 0.
34.76000, 0.
34.79000, 0.
34.82000, 0.
34.85000, 0.
34.88000, 0.
34.91000, 0.
34.94000, 0.
34.97000, 1.
35.00000, 0.
35.03000, 0.
35.06000, 0.
35.09000, 0.
35.12000, 1.
35.15000, 1.
35.18000, 2.
35.21000, 0.
35.24000, 1.
35.27000, 1.
35.30000, 0.
35.33000, 1.
35.36000, 2.
35.39000, 0.
35.42000, 0.
35.45000, 1.
35.48000, 0.
35.51000, 2.
35.54000, 1.
35.57000, 0.
35.60000, 1.
35.63000, 0.
35.66000, 0.
35.69000, 0.
35.72000, 0.
35.75000, 0.
35.78000, 0.
35.81000, 0.
35.84000, 0.
35.87000, 0.
35.90000, 0.
35.93000, 0.
35.96000, 0.
35.99000, 0.
36.02000, 0.
36.05000, 0.
36.08000, 1.
36.11000, 0.
36.14000, 0.
36.17000, 0.
36.20000, 0.
36.23000, 1.
36.26000, 0.
36.29000, 0.
36.32000, 0.
36.35000, 0.
36.38000, 0.
36.41000, 0.
36.44000, 0.
36.47000, 0.
36.50000, 0.
36.53000, 0.
36.56000, 0.
36.59000, 0.
36.62000, 0.
36.65000, 0.
36.68000, 0.
36.71000, 1.
36.74000, 1.
36.77000, 0.
36.80000, 0.
36.83000, 0.
36.86000, 0.
36.89000, 0.
36.92000, 0.
36.95000, 0.
36.98000, 0.
37.01000, 0.
37.04000, 0.
37.07000, 0.
37.10000, 0.
37.13000, 0.
37.16000, 0.
37.19000, 0.
37.22000, 1.
37.25000, 0.
37.28000, 0.
37.31000, 1.
37.34000, 0.
37.37000, 0.
37.40000, 0.
37.43000, 0.
37.46000, 0.
37.49000, 0.
37.52000, 0.
37.55000, 1.
37.58000, 0.
37.61000, 0.
37.64000, 0.
37.67000, 0.
37.70000, 0.
37.73000, 0.
37.76000, 0.
37.79000, 0.
37.82000, 0.
37.85000, 0.
37.88000, 0.
37.91000, 0.
37.94000, 0.
37.97000, 0.
38.00000, 0.
38.03000, 0.
38.06000, 0.
38.09000, 0.
38.12000, 0.
38.15000, 0.
38.18000, 0.
38.21000, 0.
38.24000, 0.
38.27000, 0.
38.30000, 0.
38.33000, 0.
38.36000, 1.
38.39000, 0.
38.42000, 0.
38.45000, 0.
38.48000, 0.
38.51000, 0.
38.54000, 0.
38.57000, 0.
38.60000, 0.
38.63000, 0.
38.66000, 0.
38.69000, 0.
38.72000, 1.
38.75000, 0.
38.78000, 0.
38.81000, 0.
38.84000, 0.
38.87000, 0.
38.90000, 0.
38.93000, 0.
38.96000, 0.
38.99000, 0.
39.02000, 0.
39.05000, 0.
39.08000, 0.
39.11000, 0.
39.14000, 0.
39.17000, 0.
39.20000, 0.
39.23000, 0.
39.26000, 0.
39.29000, 0.
39.32000, 0.
39.35000, 0.
39.38000, 0.
39.41000, 0.
39.44000, 0.
39.47000, 0.
39.50000, 0.
39.53000, 0.
39.56000, 0.
39.59000, 0.
39.62000, 0.
39.65000, 1.
39.68000, 0.
39.71000, 0.
39.74000, 0.
39.77000, 0.
39.80000, 0.
39.83000, 0.
39.86000, 0.
39.89000, 0.
39.92000, 0.
39.95000, 0.
39.98000, 0.
40.01000, 0.
40.04000, 0.
40.07000, 0.
40.10000, 0.
40.13000, 0.
40.16000, 0.
40.19000, 0.
40.22000, 0.
40.25000, 0.
40.28000, 0.
40.31000, 0.
40.34000, 0.
40.37000, 0.
40.40000, 0.
40.43000, 0.
40.46000, 0.
40.49000, 0.
40.52000, 0.
40.55000, 0.
#ENDOFDATA   :