File: sample_data/data/Fe.txt
#FORMAT      : EMSA/MAS Spectral Data File
#VERSION     : 1.0
#TITLE       : Spectrum 6
#DATE        : 25-NOV-2025
#TIME        : 13:34
#OWNER       : XGT7200
#NPOINTS     : 4096.
#NCOLUMNS    : 1.
#XUNITS      : keV
#YUNITS      : counts
#DATATYPE    : XY
#XPERCHAN    : 0.0100000
#OFFSET      : -0.400000
#SIGNALTYPE  : EDS
#CHOFFSET    : 40.0000
#LIVETIME    : 30
#REALTIME    : 36.4027
#BEAMKV      : 30.0000
#PROBECUR    : 1.00000E+006
#MAGCAM      : 100.000
#XTILTSTGE   : 0.0
#AZIMANGLE   : 0.0
#ELEVANGLE   : 45.0
#XPOSITION mm: 0.0000
#YPOSITION mm: 0.0000
#ZPOSITION mm: 0.0000
##OXINSTPT   : 4
##OXINSTSTROB: 71.25
##OXINSTELEMS: 13,14,16,17,24,26,34,37,45,48,57,91
##OXINSTLABEL: 14, 1.740, Si
##OXINSTLABEL: 26, 6.404, Fe
##OXINSTLABEL: 26, 7.058, Fe
##OXINSTLABEL: 26, 0.705, Fe
##OXINSTLABEL: 26, 0.628, Fe
##OXINSTLABEL: 48, 23.174, Cd
##OXINSTLABEL: 48, 26.096, Cd
##OXINSTLABEL: 48, 26.644, Cd
##OXINSTLABEL: 48, 3.134, Cd
##OXINSTLABEL: 48, 3.317, Cd
##OXINSTLABEL: 48, 2.957, Cd
##OXINSTLABEL: 48, 3.951, Cd
##OXINSTLABEL: 48, 2.767, Cd
##OXINSTLABEL: 24, 5.415, Cr
##OXINSTLABEL: 24, 5.947, Cr
##OXINSTLABEL: 24, 0.573, Cr
##OXINSTLABEL: 24, 0.510, Cr
##OXINSTLABEL: 13, 1.487, Al
##OXINSTLABEL: 34, 11.223, Se
##OXINSTLABEL: 34, 12.496, Se
##OXINSTLABEL: 34, 1.379, Se
##OXINSTLABEL: 34, 1.245, Se
##OXINSTLABEL: 34, 1.204, Se
##OXINSTLABEL: 45, 20.216, Rh
##OXINSTLABEL: 45, 22.724, Rh
##OXINSTLABEL: 45, 23.173, Rh
##OXINSTLABEL: 45, 2.697, Rh
##OXINSTLABEL: 45, 2.834, Rh
##OXINSTLABEL: 45, 2.519, Rh
##OXINSTLABEL: 45, 3.364, Rh
##OXINSTLABEL: 45, 2.377, Rh
##OXINSTLABEL: 91, 13.291, Pa
##OXINSTLABEL: 91, 16.702, Pa
##OXINSTLABEL: 91, 16.025, Pa
##OXINSTLABEL: 91, 14.947, Pa
##OXINSTLABEL: 91, 19.569, Pa
##OXINSTLABEL: 91, 19.872, Pa
##OXINSTLABEL: 91, 11.366, Pa
##OXINSTLABEL: 91, 3.083, Pa
##OXINSTLABEL: 91, 3.240, Pa
##OXINSTLABEL: 91, 3.466, Pa
##OXINSTLABEL: 91, 2.388, Pa
##OXINSTLABEL: 91, 4.261, Pa
##OXINSTLABEL: 16, 2.308, S
##OXINSTLABEL: 16, 2.464, S
##OXINSTLABEL: 57, 33.442, La
##OXINSTLABEL: 57, 33.035, La
##OXINSTLABEL: 57, 37.802, La
##OXINSTLABEL: 57, 38.731, La
##OXINSTLABEL: 57, 4.651, La
##OXINSTLABEL: 57, 5.042, La
##OXINSTLABEL: 57, 5.384, La
##OXINSTLABEL: 57, 4.525, La
##OXINSTLABEL: 57, 5.789, La
##OXINSTLABEL: 57, 6.060, La
##OXINSTLABEL: 57, 4.125, La
##OXINSTLABEL: 57, 0.833, La
##OXINSTLABEL: 57, 1.026, La
##OXINSTLABEL: 57, 0.638, La
##OXINSTLABEL: 17, 2.622, Cl
##OXINSTLABEL: 17, 2.816, Cl
##OXINSTLABEL: 17, 0.184, Cl
##OXINSTLABEL: 37, 13.396, Rb
##OXINSTLABEL: 37, 14.962, Rb
##OXINSTLABEL: 37, 1.694, Rb
##OXINSTLABEL: 37, 1.542, Rb
##OXINSTLABEL: 37, 1.482, Rb
#SPECTRUM    : Spectral Data Starts Here
-0.40000, 0.
-0.37000, 0.
-0.34000, 0.
-0.31000, 0.
-0.28000, 0.
-0.25000, 0.
-0.22000, 0.
-0.19000, 0.
-0.16000, 0.
-0.13000, 0.
-0.10000, 0.
-0.07000, 0.
-0.04000, 0.
-0.01000, 0.
0.02000, 0.
0.05000, 0.
0.08000, 0.
0.11000, 0.
0.14000, 0.
0.17000, 0.
0.20000, 0.
0.23000, 0.
0.26000, 0.
0.29000, 0.
0.32000, 0.
0.35000, 0.
0.38000, 0.
0.41000, 0.
0.44000, 3.
0.47000, 1.
0.50000, 2.
0.53000, 1.
0.56000, 2.
0.59000, 2.
0.62000, 3.
0.65000, 1.
0.68000, 2.
0.71000, 5.
0.74000, 3.
0.77000, 3.
0.80000, 1.
0.83000, 2.
0.86000, 0.
0.89000, 4.
0.92000, 1.
0.95000, 1.
0.98000, 0.
1.01000, 3.
1.04000, 3.
1.07000, 6.
1.10000, 2.
1.13000, 1.
1.16000, 3.
1.19000, 1.
1.22000, 6.
1.25000, 1.
1.28000, 0.
1.31000, 1.
1.34000, 1.
1.37000, 2.
1.40000, 6.
1.43000, 9.
1.46000, 16.
1.49000, 10.
1.52000, 13.
1.55000, 13.
1.58000, 0.
1.61000, 4.
1.64000, 9.
1.67000, 12.
1.70000, 24.
1.73000, 49.
1.76000, 40.
1.79000, 36.
1.82000, 13.
1.85000, 13.
1.88000, 4.
1.91000, 3.
1.94000, 3.
1.97000, 2.
2.00000, 11.
2.03000, 6.
2.06000, 7.
2.09000, 6.
2.12000, 8.
2.15000, 3.
2.18000, 1.
2.21000, 4.
2.24000, 6.
2.27000, 8.
2.30000, 11.
2.33000, 9.
2.36000, 12.
2.39000, 8.
2.42000, 2.
2.45000, 10.
2.48000, 9.
2.51000, 4.
2.54000, 7.
2.57000, 16.
2.60000, 19.
2.63000, 37.
2.66000, 32.
2.69000, 47.
2.72000, 26.
2.75000, 25.
2.78000, 17.
2.81000, 23.
2.84000, 25.
2.87000, 18.
2.90000, 19.
2.93000, 12.
2.96000, 10.
2.99000, 12.
3.02000, 23.
3.05000, 57.
3.08000, 162.
3.11000, 150.
3.14000, 177.
3.17000, 125.
3.20000, 57.
3.23000, 31.
3.26000, 11.
3.29000, 12.
3.32000, 10.
3.35000, 12.
3.38000, 10.
3.41000, 7.
3.44000, 8.
3.47000, 6.
3.50000, 6.
3.53000, 1.
3.56000, 10.
3.59000, 8.
3.62000, 15.
3.65000, 15.
3.68000, 13.
3.71000, 11.
3.74000, 10.
3.77000, 6.
3.80000, 6.
3.83000, 7.
3.86000, 12.
3.89000, 8.
3.92000, 5.
3.95000, 6.
3.98000, 15.
4.01000, 10.
4.04000, 5.
4.07000, 12.
4.10000, 6.
4.13000, 9.
4.16000, 8.
4.19000, 6.
4.22000, 6.
4.25000, 5.
4.28000, 12.
4.31000, 13.
4.34000, 27.
4.37000, 30.
4.40000, 48.
4.43000, 45.
4.46000, 47.
4.49000, 48.
4.52000, 36.
4.55000, 45.
4.58000, 71.
4.61000, 96.
4.64000, 130.
4.67000, 134.
4.70000, 88.
4.73000, 57.
4.76000, 42.
4.79000, 12.
4.82000, 15.
4.85000, 7.
4.88000, 18.
4.91000, 22.
4.94000, 12.
4.97000, 10.
5.00000, 14.
5.03000, 19.
5.06000, 8.
5.09000, 15.
5.12000, 13.
5.15000, 20.
5.18000, 22.
5.21000, 28.
5.24000, 37.
5.27000, 50.
5.30000, 71.
5.33000, 121.
5.36000, 150.
5.39000, 206.
5.42000, 183.
5.45000, 117.
5.48000, 91.
5.51000, 54.
5.54000, 34.
5.57000, 32.
5.60000, 22.
5.63000, 21.
5.66000, 24.
5.69000, 13.
5.72000, 17.
5.75000, 17.
5.78000, 23.
5.81000, 27.
5.84000, 30.
5.87000, 54.
5.90000, 57.
5.93000, 54.
5.96000, 46.
5.99000, 59.
6.02000, 52.
6.05000, 62.
6.08000, 81.
6.11000, 86.
6.14000, 136.
6.17000, 235.
6.20000, 415.
6.23000, 931.
6.26000, 2602.
6.29000, 6468.
6.32000, 13665.
6.35000, 22919.
6.38000, 29763.
6.41000, 31312.
6.44000, 25895.
6.47000, 16598.
6.50000, 8684.
6.53000, 3601.
6.56000, 1125.
6.59000, 374.
6.62000, 126.
6.65000, 86.
6.68000, 64.
6.71000, 76.
6.74000, 72.
6.77000, 76.
6.80000, 100.
6.83000, 127.
6.86000, 187.
6.89000, 330.
6.92000, 763.
6.95000, 1345.
6.98000, 2406.
7.01000, 3487.
7.04000, 4378.
7.07000, 4215.
7.10000, 3486.
7.13000, 2173.
7.16000, 1198.
7.19000, 488.
7.22000, 186.
7.25000, 43.
7.28000, 15.
7.31000, 3.
7.34000, 0.
7.37000, 2.
7.40000, 7.
7.43000, 0.
7.46000, 5.
7.49000, 4.
7.52000, 3.
7.55000, 4.
7.58000, 6.
7.61000, 7.
7.64000, 8.
7.67000, 4.
7.70000, 1.
7.73000, 3.
7.76000, 2.
7.79000, 4.
7.82000, 3.
7.85000, 3.
7.88000, 2.
7.91000, 1.
7.94000, 4.
7.97000, 2.
8.00000, 3.
8.03000, 7.
8.06000, 8.
8.09000, 8.
8.12000, 8.
8.15000, 13.
8.18000, 21.
8.21000, 34.
8.24000, 22.
8.27000, 22.
8.30000, 24.
8.33000, 15.
8.36000, 5.
8.39000, 3.
8.42000, 7.
8.45000, 3.
8.48000, 4.
8.51000, 3.
8.54000, 1.
8.57000, 8.
8.60000, 2.
8.63000, 3.
8.66000, 5.
8.69000, 6.
8.72000, 6.
8.75000, 4.
8.78000, 4.
8.81000, 7.
8.84000, 8.
8.87000, 4.
8.90000, 3.
8.93000, 3.
8.96000, 3.
8.99000, 9.
9.02000, 3.
9.05000, 1.
9.08000, 1.
9.11000, 5.
9.14000, 6.
9.17000, 8.
9.20000, 4.
9.23000, 11.
9.26000, 10.
9.29000, 25.
9.32000, 12.
9.35000, 16.
9.38000, 19.
9.41000, 9.
9.44000, 9.
9.47000, 9.
9.50000, 10.
9.53000, 6.
9.56000, 5.
9.59000, 7.
9.62000, 5.
9.65000, 3.
9.68000, 5.
9.71000, 9.
9.74000, 12.
9.77000, 16.
9.80000, 7.
9.83000, 18.
9.86000, 12.
9.89000, 10.
9.92000, 9.
9.95000, 7.
9.98000, 7.
10.01000, 3.
10.04000, 9.
10.07000, 9.
10.10000, 4.
10.13000, 6.
10.16000, 8.
10.19000, 7.
10.22000, 5.
10.25000, 4.
10.28000, 7.
10.31000, 12.
10.34000, 9.
10.37000, 2.
10.40000, 11.
10.43000, 5.
10.46000, 9.
10.49000, 1.
10.52000, 4.
10.55000, 9.
10.58000, 3.
10.61000, 6.
10.64000, 4.
10.67000, 10.
10.70000, 8.
10.73000, 5.
10.76000, 2.
10.79000, 12.
10.82000, 6.
10.85000, 10.
10.88000, 11.
10.91000, 8.
10.94000, 7.
10.97000, 7.
11.00000, 9.
11.03000, 3.
11.06000, 6.
11.09000, 6.
11.12000, 6.
11.15000, 18.
11.18000, 23.
11.21000, 15.
11.24000, 24.
11.27000, 14.
11.30000, 10.
11.33000, 14.
11.36000, 6.
11.39000, 7.
11.42000, 4.
11.45000, 7.
11.48000, 5.
11.51000, 8.
11.54000, 2.
11.57000, 7.
11.60000, 3.
11.63000, 2.
11.66000, 4.
11.69000, 5.
11.72000, 3.
11.75000, 7.
11.78000, 3.
11.81000, 6.
11.84000, 4.
11.87000, 1.
11.90000, 6.
11.93000, 8.
11.96000, 8.
11.99000, 10.
12.02000, 14.
12.05000, 10.
12.08000, 13.
12.11000, 13.
12.14000, 6.
12.17000, 7.
12.20000, 13.
12.23000, 4.
12.26000, 6.
12.29000, 7.
12.32000, 3.
12.35000, 5.
12.38000, 3.
12.41000, 2.
12.44000, 9.
12.47000, 8.
12.50000, 9.
12.53000, 5.
12.56000, 8.
12.59000, 8.
12.62000, 20.
12.65000, 29.
12.68000, 45.
12.71000, 91.
12.74000, 118.
12.77000, 136.
12.80000, 155.
12.83000, 132.
12.86000, 108.
12.89000, 108.
12.92000, 63.
12.95000, 35.
12.98000, 18.
13.01000, 12.
13.04000, 8.
13.07000, 3.
13.10000, 6.
13.13000, 7.
13.16000, 10.
13.19000, 7.
13.22000, 13.
13.25000, 12.
13.28000, 9.
13.31000, 18.
13.34000, 15.
13.37000, 34.
13.40000, 37.
13.43000, 52.
13.46000, 49.
13.49000, 39.
13.52000, 43.
13.55000, 36.
13.58000, 31.
13.61000, 25.
13.64000, 18.
13.67000, 15.
13.70000, 9.
13.73000, 4.
13.76000, 5.
13.79000, 7.
13.82000, 11.
13.85000, 7.
13.88000, 6.
13.91000, 11.
13.94000, 4.
13.97000, 11.
14.00000, 7.
14.03000, 9.
14.06000, 10.
14.09000, 11.
14.12000, 13.
14.15000, 10.
14.18000, 5.
14.21000, 16.
14.24000, 4.
14.27000, 13.
14.30000, 5.
14.33000, 8.
14.36000, 6.
14.39000, 8.
14.42000, 3.
14.45000, 6.
14.48000, 5.
14.51000, 4.
14.54000, 5.
14.57000, 7.
14.60000, 3.
14.63000, 8.
14.66000, 3.
14.69000, 8.
14.72000, 3.
14.75000, 6.
14.78000, 7.
14.81000, 5.
14.84000, 12.
14.87000, 9.
14.90000, 10.
14.93000, 9.
14.96000, 9.
14.99000, 14.
15.02000, 8.
15.05000, 7.
15.08000, 6.
15.11000, 6.
15.14000, 6.
15.17000, 1.
15.20000, 11.
15.23000, 4.
15.26000, 1.
15.29000, 7.
15.32000, 3.
15.35000, 1.
15.38000, 6.
15.41000, 5.
15.44000, 4.
15.47000, 8.
15.50000, 6.
15.53000, 4.
15.56000, 6.
15.59000, 11.
15.62000, 11.
15.65000, 11.
15.68000, 6.
15.71000, 5.
15.74000, 6.
15.77000, 5.
15.80000, 5.
15.83000, 8.
15.86000, 4.
15.89000, 5.
15.92000, 8.
15.95000, 6.
15.98000, 5.
16.01000, 2.
16.04000, 8.
16.07000, 7.
16.10000, 7.
16.13000, 6.
16.16000, 8.
16.19000, 7.
16.22000, 9.
16.25000, 2.
16.28000, 11.
16.31000, 8.
16.34000, 6.
16.37000, 3.
16.40000, 8.
16.43000, 3.
16.46000, 4.
16.49000, 7.
16.52000, 5.
16.55000, 6.
16.58000, 7.
16.61000, 9.
16.64000, 5.
16.67000, 5.
16.70000, 4.
16.73000, 3.
16.76000, 3.
16.79000, 5.
16.82000, 2.
16.85000, 8.
16.88000, 7.
16.91000, 7.
16.94000, 5.
16.97000, 5.
17.00000, 3.
17.03000, 4.
17.06000, 4.
17.09000, 6.
17.12000, 1.
17.15000, 5.
17.18000, 7.
17.21000, 7.
17.24000, 10.
17.27000, 8.
17.30000, 9.
17.33000, 5.
17.36000, 7.
17.39000, 6.
17.42000, 7.
17.45000, 3.
17.48000, 6.
17.51000, 9.
17.54000, 7.
17.57000, 1.
17.60000, 1.
17.63000, 6.
17.66000, 6.
17.69000, 4.
17.72000, 7.
17.75000, 2.
17.78000, 7.
17.81000, 9.
17.84000, 4.
17.87000, 4.
17.90000, 1.
17.93000, 5.
17.96000, 5.
17.99000, 7.
18.02000, 2.
18.05000, 3.
18.08000, 4.
18.11000, 4.
18.14000, 7.
18.17000, 10.
18.20000, 5.
18.23000, 2.
18.26000, 4.
18.29000, 7.
18.32000, 5.
18.35000, 5.
18.38000, 5.
18.41000, 7.
18.44000, 7.
18.47000, 7.
18.50000, 6.
18.53000, 5.
18.56000, 6.
18.59000, 9.
18.62000, 7.
18.65000, 5.
18.68000, 7.
18.71000, 7.
18.74000, 6.
18.77000, 10.
18.80000, 6.
18.83000, 8.
18.86000, 11.
18.89000, 8.
18.92000, 6.
18.95000, 11.
18.98000, 7.
19.01000, 7.
19.04000, 5.
19.07000, 4.
19.10000, 5.
19.13000, 9.
19.16000, 4.
19.19000, 5.
19.22000, 4.
19.25000, 9.
19.28000, 6.
19.31000, 6.
19.34000, 5.
19.37000, 2.
19.40000, 5.
19.43000, 3.
19.46000, 1.
19.49000, 3.
19.52000, 6.
19.55000, 6.
19.58000, 6.
19.61000, 4.
19.64000, 3.
19.67000, 4.
19.70000, 7.
19.73000, 4.
19.76000, 2.
19.79000, 0.
19.82000, 3.
19.85000, 9.
19.88000, 3.
19.91000, 5.
19.94000, 10.
19.97000, 11.
20.00000, 7.
20.03000, 16.
20.06000, 13.
20.09000, 11.
20.12000, 13.
20.15000, 19.
20.18000, 22.
20.21000, 15.
20.24000, 8.
20.27000, 10.
20.30000, 6.
20.33000, 12.
20.36000, 5.
20.39000, 4.
20.42000, 7.
20.45000, 4.
20.48000, 6.
20.51000, 5.
20.54000, 4.
20.57000, 7.
20.60000, 5.
20.63000, 5.
20.66000, 4.
20.69000, 3.
20.72000, 2.
20.75000, 4.
20.78000, 3.
20.81000, 7.
20.84000, 3.
20.87000, 3.
20.90000, 4.
20.93000, 4.
20.96000, 3.
20.99000, 4.
21.02000, 3.
21.05000, 1.
21.08000, 3.
21.11000, 4.
21.14000, 3.
21.17000, 5.
21.20000, 5.
21.23000, 2.
21.26000, 4.
21.29000, 3.
21.32000, 3.
21.35000, 2.
21.38000, 4.
21.41000, 1.
21.44000, 2.
21.47000, 1.
21.50000, 0.
21.53000, 2.
21.56000, 0.
21.59000, 2.
21.62000, 3.
21.65000, 2.
21.68000, 5.
21.71000, 2.
21.74000, 3.
21.77000, 2.
21.80000, 1.
21.83000, 4.
21.86000, 0.
21.89000, 3.
21.92000, 2.
21.95000, 1.
21.98000, 2.
22.01000, 1.
22.04000, 2.
22.07000, 2.
22.10000, 2.
22.13000, 1.
22.16000, 2.
22.19000, 3.
22.22000, 4.
22.25000, 2.
22.28000, 4.
22.31000, 5.
22.34000, 2.
22.37000, 2.
22.40000, 3.
22.43000, 4.
22.46000, 3.
22.49000, 3.
22.52000, 4.
22.55000, 4.
22.58000, 1.
22.61000, 0.
22.64000, 4.
22.67000, 5.
22.70000, 3.
22.73000, 6.
22.76000, 4.
22.79000, 5.
22.82000, 2.
22.85000, 3.
22.88000, 1.
22.91000, 1.
22.94000, 3.
22.97000, 2.
23.00000, 3.
23.03000, 2.
23.06000, 1.
23.09000, 2.
23.12000, 1.
23.15000, 2.
23.18000, 1.
23.21000, 3.
23.24000, 1.
23.27000, 1.
23.30000, 0.
23.33000, 1.
23.36000, 3.
23.39000, 2.
23.42000, 4.
23.45000, 2.
23.48000, 0.
23.51000, 2.
23.54000, 2.
23.57000, 1.
23.60000, 1.
23.63000, 1.
23.66000, 2.
23.69000, 0.
23.72000, 0.
23.75000, 2.
23.78000, 0.
23.81000, 1.
23.84000, 2.
23.87000, 2.
23.90000, 1.
23.93000, 2.
23.96000, 0.
23.99000, 1.
24.02000, 1.
24.05000, 1.
24.08000, 0.
24.11000, 1.
24.14000, 1.
24.17000, 1.
24.20000, 0.
24.23000, 1.
24.26000, 3.
24.29000, 1.
24.32000, 2.
24.35000, 1.
24.38000, 1.
24.41000, 0.
24.44000, 0.
24.47000, 1.
24.50000, 1.
24.53000, 1.
24.56000, 0.
24.59000, 1.
24.62000, 3.
24.65000, 0.
24.68000, 0.
24.71000, 2.
24.74000, 2.
24.77000, 1.
24.80000, 1.
24.83000, 1.
24.86000, 3.
24.89000, 2.
24.92000, 0.
24.95000, 1.
24.98000, 2.
25.01000, 0.
25.04000, 2.
25.07000, 0.
25.10000, 0.
25.13000, 1.
25.16000, 0.
25.19000, 0.
25.22000, 1.
25.25000, 2.
25.28000, 0.
25.31000, 1.
25.34000, 0.
25.37000, 1.
25.40000, 1.
25.43000, 1.
25.46000, 2.
25.49000, 1.
25.52000, 1.
25.55000, 1.
25.58000, 1.
25.61000, 1.
25.64000, 3.
25.67000, 1.
25.70000, 1.
25.73000, 0.
25.76000, 0.
25.79000, 1.
25.82000, 1.
25.85000, 1.
25.88000, 0.
25.91000, 0.
25.94000, 1.
25.97000, 0.
26.00000, 1.
26.03000, 1.
26.06000, 0.
26.09000, 1.
26.12000, 0.
26.15000, 1.
26.18000, 3.
26.21000, 1.
26.24000, 2.
26.27000, 0.
26.30000, 1.
26.33000, 0.
26.36000, 1.
26.39000, 0.
26.42000, 0.
26.45000, 0.
26.48000, 0.
26.51000, 2.
26.54000, 1.
26.57000, 0.
26.60000, 1.
26.63000, 0.
26.66000, 1.
26.69000, 0.
26.72000, 1.
26.75000, 0.
26.78000, 0.
26.81000, 0.
26.84000, 1.
26.87000, 0.
26.90000, 0.
26.93000, 0.
26.96000, 2.
26.99000, 0.
27.02000, 0.
27.05000, 2.
27.08000, 0.
27.11000, 1.
27.14000, 0.
27.17000, 0.
27.20000, 0.
27.23000, 0.
27.26000, 0.
27.29000, 0.
27.32000, 0.
27.35000, 0.
27.38000, 0.
27.41000, 0.
27.44000, 0.
27.47000, 0.
27.50000, 1.
27.53000, 1.
27.56000, 1.
27.59000, 0.
27.62000, 0.
27.65000, 0.
27.68000, 0.
27.71000, 1.
27.74000, 0.
27.77000, 0.
27.80000, 1.
27.83000, 1.
27.86000, 1.
27.89000, 0.
27.92000, 0.
27.95000, 0.
27.98000, 1.
28.01000, 0.
28.04000, 2.
28.07000, 0.
28.10000, 0.
28.13000, 1.
28.16000, 0.
28.19000, 1.
28.22000, 0.
28.25000, 0.
28.28000, 0.
28.31000, 0.
28.34000, 0.
28.37000, 1.
28.40000, 0.
28.43000, 0.
28.46000, 0.
28.49000, 0.
28.52000, 0.
28.55000, 0.
28.58000, 0.
28.61000, 0.
28.64000, 0.
28.67000, 0.
28.70000, 0.
28.73000, 0.
28.76000, 0.
28.79000, 1.
28.82000, 0.
28.85000, 0.
28.88000, 0.
28.91000, 0.
28.94000, 0.
28.97000, 0.
29.00000, 0.
29.03000, 0.
29.06000, 1.
29.09000, 0.
29.12000, 0.
29.15000, 2.
29.18000, 0.
29.21000, 0.
29.24000, 0.
29.27000, 0.
29.30000, 0.
29.33000, 1.
29.36000, 0.
29.39000, 0.
29.42000, 0.
29.45000, 0.
29.48000, 0.
29.51000, 0.
29.54000, 1.
29.57000, 0.
29.60000, 0.
29.63000, 0.
29.66000, 0.
29.69000, 0.
29.72000, 0.
29.75000, 1.
29.78000, 0.
29.81000, 0.
29.84000, 0.
29.87000, 0.
29.90000, 0.
29.93000, 0.
29.96000, 0.
29.99000, 0.
30.02000, 0.
30.05000, 0.
30.08000, 0.
30.11000, 0.
30.14000, 0.
30.17000, 0.
30.20000, 0.
30.23000, 0.
30.26000, 0.
30.29000, 0.
30.32000, 0.
30.35000, 0.
30.38000, 0.
30.41000, 0.
30.44000, 0.
30.47000, 0.
30.50000, 0.
30.53000, 0.
30.56000, 0.
30.59000, 0.
30.62000, 0.
30.65000, 0.
30.68000, 0.
30.71000, 0.
30.74000, 0.
30.77000, 0.
30.80000, 0.
30.83000, 0.
30.86000, 0.
30.89000, 0.
30.92000, 0.
30.95000, 0.
30.98000, 0.
31.01000, 0.
31.04000, 0.
31.07000, 0.
31.10000, 0.
31.13000, 0.
31.16000, 0.
31.19000, 0.
31.22000, 0.
31.25000, 0.
31.28000, 0.
31.31000, 0.
31.34000, 0.
31.37000, 0.
31.40000, 0.
31.43000, 0.
31.46000, 0.
31.49000, 0.
31.52000, 0.
31.55000, 0.
31.58000, 0.
31.61000, 0.
31.64000, 0.
31.67000, 0.
31.70000, 0.
31.73000, 0.
31.76000, 0.
31.79000, 0.
31.82000, 0.
31.85000, 0.
31.88000, 0.
31.91000, 0.
31.94000, 0.
31.97000, 0.
32.00000, 0.
32.03000, 0.
32.06000, 0.
32.09000, 0.
32.12000, 0.
32.15000, 0.
32.18000, 0.
32.21000, 0.
32.24000, 0.
32.27000, 0.
32.30000, 0.
32.33000, 0.
32.36000, 0.
32.39000, 0.
32.42000, 0.
32.45000, 0.
32.48000, 0.
32.51000, 0.
32.54000, 0.
32.57000, 0.
32.60000, 0.
32.63000, 0.
32.66000, 0.
32.69000, 0.
32.72000, 0.
32.75000, 0.
32.78000, 0.
32.81000, 0.
32.84000, 0.
32.87000, 0.
32.90000, 0.
32.93000, 0.
32.96000, 0.
32.99000, 0.
33.02000, 0.
33.05000, 0.
33.08000, 0.
33.11000, 0.
33.14000, 0.
33.17000, 0.
33.20000, 0.
33.23000, 0.
33.26000, 0.
33.29000, 0.
33.32000, 0.
33.35000, 0.
33.38000, 0.
33.41000, 0.
33.44000, 0.
33.47000, 0.
33.50000, 0.
33.53000, 0.
33.56000, 0.
33.59000, 0.
33.62000, 0.
33.65000, 0.
33.68000, 0.
33.71000, 0.
33.74000, 0.
33.77000, 0.
33.80000, 0.
33.83000, 0.
33.86000, 0.
33.89000, 0.
33.92000, 0.
33.95000, 0.
33.98000, 0.
34.01000, 0.
34.04000, 0.
34.07000, 0.
34.10000, 0.
34.13000, 0.
34.16000, 0.
34.19000, 0.
34.22000, 0.
34.25000, 0.
34.28000, 0.
34.31000, 0.
34.34000, 0.
34.37000, 0.
34.40000, 0.
34.43000, 0.
34.46000, 0.
34.49000, 0.
34.52000, 0.
34.55000, 0.
34.58000, 0.
34.61000, 0.
34.64000, 0.
34.67000, 0.
34.70000, 0.
34.73000, 0.
34.76000, 0.
34.79000, 0.
34.82000, 0.
34.85000, 0.
34.88000, 0.
34.91000, 0.
34.94000, 0.
34.97000, 0.
35.00000, 0.
35.03000, 0.
35.06000, 0.
35.09000, 0.
35.12000, 0.
35.15000, 0.
35.18000, 0.
35.21000, 0.
35.24000, 0.
35.27000, 0.
35.30000, 0.
35.33000, 0.
35.36000, 0.
35.39000, 0.
35.42000, 0.
35.45000, 0.
35.48000, 0.
35.51000, 0.
35.54000, 0.
35.57000, 0.
35.60000, 0.
35.63000, 0.
35.66000, 0.
35.69000, 0.
35.72000, 0.
35.75000, 0.
35.78000, 0.
35.81000, 0.
35.84000, 0.
35.87000, 0.
35.90000, 0.
35.93000, 0.
35.96000, 0.
35.99000, 0.
36.02000, 0.
36.05000, 0.
36.08000, 0.
36.11000, 0.
36.14000, 0.
36.17000, 0.
36.20000, 0.
36.23000, 0.
36.26000, 0.
36.29000, 0.
36.32000, 0.
36.35000, 0.
36.38000, 0.
36.41000, 0.
36.44000, 0.
36.47000, 0.
36.50000, 0.
36.53000, 0.
36.56000, 0.
36.59000, 0.
36.62000, 0.
36.65000, 0.
36.68000, 0.
36.71000, 0.
36.74000, 0.
36.77000, 0.
36.80000, 0.
36.83000, 0.
36.86000, 0.
36.89000, 0.
36.92000, 0.
36.95000, 0.
36.98000, 0.
37.01000, 0.
37.04000, 0.
37.07000, 0.
37.10000, 0.
37.13000, 0.
37.16000, 0.
37.19000, 0.
37.22000, 0.
37.25000, 0.
37.28000, 0.
37.31000, 0.
37.34000, 0.
37.37000, 0.
37.40000, 0.
37.43000, 0.
37.46000, 0.
37.49000, 0.
37.52000, 0.
37.55000, 0.
37.58000, 0.
37.61000, 0.
37.64000, 0.
37.67000, 0.
37.70000, 0.
37.73000, 0.
37.76000, 0.
37.79000, 0.
37.82000, 0.
37.85000, 0.
37.88000, 0.
37.91000, 0.
37.94000, 0.
37.97000, 0.
38.00000, 0.
38.03000, 0.
38.06000, 0.
38.09000, 0.
38.12000, 0.
38.15000, 0.
38.18000, 0.
38.21000, 0.
38.24000, 0.
38.27000, 0.
38.30000, 0.
38.33000, 0.
38.36000, 0.
38.39000, 0.
38.42000, 0.
38.45000, 0.
38.48000, 0.
38.51000, 0.
38.54000, 0.
38.57000, 0.
38.60000, 0.
38.63000, 0.
38.66000, 0.
38.69000, 0.
38.72000, 0.
38.75000, 0.
38.78000, 0.
38.81000, 0.
38.84000, 0.
38.87000, 0.
38.90000, 0.
38.93000, 0.
38.96000, 0.
38.99000, 0.
39.02000, 0.
39.05000, 0.
39.08000, 0.
39.11000, 0.
39.14000, 0.
39.17000, 0.
39.20000, 0.
39.23000, 0.
39.26000, 0.
39.29000, 0.
39.32000, 0.
39.35000, 0.
39.38000, 0.
39.41000, 0.
39.44000, 0.
39.47000, 0.
39.50000, 0.
39.53000, 0.
39.56000, 0.
39.59000, 0.
39.62000, 0.
39.65000, 0.
39.68000, 0.
39.71000, 0.
39.74000, 0.
39.77000, 0.
39.80000, 0.
39.83000, 0.
39.86000, 0.
39.89000, 0.
39.92000, 0.
39.95000, 0.
39.98000, 0.
40.01000, 0.
40.04000, 0.
40.07000, 0.
40.10000, 0.
40.13000, 0.
40.16000, 0.
40.19000, 0.
40.22000, 0.
40.25000, 0.
40.28000, 0.
40.31000, 0.
40.34000, 0.
40.37000, 0.
40.40000, 0.
40.43000, 0.
40.46000, 0.
40.49000, 0.
40.52000, 0.
40.55000, 0.
#ENDOFDATA   :