File: sample_data/data/NIST 2586.txt
#FORMAT      : EMSA/MAS Spectral Data File
#VERSION     : 1.0
#TITLE       : Spectrum 27
#DATE        : 21-AUG-2025
#TIME        : 15:31
#OWNER       : XGT7200
#NPOINTS     : 4096.
#NCOLUMNS    : 1.
#XUNITS      : keV
#YUNITS      : counts
#DATATYPE    : XY
#XPERCHAN    : 0.0100000
#OFFSET      : -0.400000
#SIGNALTYPE  : EDS
#CHOFFSET    : 40.0000
#LIVETIME    : 30
#REALTIME    : 39.5498
#BEAMKV      : 50.0000
#PROBECUR    : 669000.
#MAGCAM      : 100.000
#XTILTSTGE   : 0.0
#AZIMANGLE   : 0.0
#ELEVANGLE   : 45.0
#XPOSITION mm: 0.0000
#YPOSITION mm: 0.0000
#ZPOSITION mm: 0.0000
##OXINSTPT   : 4
##OXINSTSTROB: 72.05
#SPECTRUM    : Spectral Data Starts Here
-0.40000, 0.
-0.37000, 0.
-0.34000, 0.
-0.31000, 0.
-0.28000, 0.
-0.25000, 0.
-0.22000, 0.
-0.19000, 0.
-0.16000, 0.
-0.13000, 0.
-0.10000, 0.
-0.07000, 0.
-0.04000, 0.
-0.01000, 0.
0.02000, 0.
0.05000, 0.
0.08000, 0.
0.11000, 0.
0.14000, 0.
0.17000, 0.
0.20000, 0.
0.23000, 0.
0.26000, 0.
0.29000, 0.
0.32000, 0.
0.35000, 3.
0.38000, 10.
0.41000, 26.
0.44000, 32.
0.47000, 47.
0.50000, 49.
0.53000, 35.
0.56000, 40.
0.59000, 44.
0.62000, 38.
0.65000, 35.
0.68000, 27.
0.71000, 48.
0.74000, 35.
0.77000, 41.
0.80000, 35.
0.83000, 36.
0.86000, 34.
0.89000, 40.
0.92000, 39.
0.95000, 49.
0.98000, 34.
1.01000, 34.
1.04000, 49.
1.07000, 39.
1.10000, 51.
1.13000, 38.
1.16000, 36.
1.19000, 50.
1.22000, 64.
1.25000, 84.
1.28000, 85.
1.31000, 48.
1.34000, 38.
1.37000, 43.
1.40000, 80.
1.43000, 235.
1.46000, 512.
1.49000, 722.
1.52000, 662.
1.55000, 341.
1.58000, 140.
1.61000, 100.
1.64000, 280.
1.67000, 1171.
1.70000, 3358.
1.73000, 5566.
1.76000, 5852.
1.79000, 3584.
1.82000, 1512.
1.85000, 502.
1.88000, 206.
1.91000, 88.
1.94000, 68.
1.97000, 65.
2.00000, 79.
2.03000, 73.
2.06000, 42.
2.09000, 37.
2.12000, 29.
2.15000, 33.
2.18000, 33.
2.21000, 28.
2.24000, 36.
2.27000, 59.
2.30000, 76.
2.33000, 76.
2.36000, 48.
2.39000, 47.
2.42000, 36.
2.45000, 29.
2.48000, 32.
2.51000, 35.
2.54000, 40.
2.57000, 59.
2.60000, 120.
2.63000, 228.
2.66000, 361.
2.69000, 501.
2.72000, 522.
2.75000, 392.
2.78000, 260.
2.81000, 255.
2.84000, 287.
2.87000, 303.
2.90000, 194.
2.93000, 129.
2.96000, 97.
2.99000, 63.
3.02000, 60.
3.05000, 43.
3.08000, 32.
3.11000, 33.
3.14000, 27.
3.17000, 31.
3.20000, 49.
3.23000, 108.
3.26000, 222.
3.29000, 384.
3.32000, 465.
3.35000, 357.
3.38000, 229.
3.41000, 102.
3.44000, 42.
3.47000, 50.
3.50000, 61.
3.53000, 57.
3.56000, 111.
3.59000, 226.
3.62000, 509.
3.65000, 911.
3.68000, 1323.
3.71000, 1251.
3.74000, 919.
3.77000, 478.
3.80000, 184.
3.83000, 59.
3.86000, 42.
3.89000, 40.
3.92000, 61.
3.95000, 124.
3.98000, 188.
4.01000, 211.
4.04000, 225.
4.07000, 156.
4.10000, 78.
4.13000, 43.
4.16000, 30.
4.19000, 27.
4.22000, 37.
4.25000, 29.
4.28000, 36.
4.31000, 46.
4.34000, 44.
4.37000, 52.
4.40000, 121.
4.43000, 254.
4.46000, 482.
4.49000, 712.
4.52000, 745.
4.55000, 610.
4.58000, 392.
4.61000, 258.
4.64000, 117.
4.67000, 110.
4.70000, 91.
4.73000, 71.
4.76000, 71.
4.79000, 63.
4.82000, 87.
4.85000, 108.
4.88000, 136.
4.91000, 157.
4.94000, 194.
4.97000, 175.
5.00000, 134.
5.03000, 78.
5.06000, 47.
5.09000, 58.
5.12000, 41.
5.15000, 55.
5.18000, 64.
5.21000, 59.
5.24000, 70.
5.27000, 65.
5.30000, 71.
5.33000, 85.
5.36000, 99.
5.39000, 124.
5.42000, 143.
5.45000, 122.
5.48000, 83.
5.51000, 99.
5.54000, 70.
5.57000, 63.
5.60000, 64.
5.63000, 63.
5.66000, 42.
5.69000, 43.
5.72000, 51.
5.75000, 51.
5.78000, 101.
5.81000, 144.
5.84000, 221.
5.87000, 300.
5.90000, 310.
5.93000, 261.
5.96000, 215.
5.99000, 131.
6.02000, 109.
6.05000, 78.
6.08000, 61.
6.11000, 98.
6.14000, 127.
6.17000, 105.
6.20000, 240.
6.23000, 573.
6.26000, 1402.
6.29000, 3486.
6.32000, 7278.
6.35000, 12224.
6.38000, 16220.
6.41000, 16852.
6.44000, 13820.
6.47000, 8898.
6.50000, 4612.
6.53000, 1853.
6.56000, 637.
6.59000, 285.
6.62000, 143.
6.65000, 95.
6.68000, 111.
6.71000, 129.
6.74000, 95.
6.77000, 133.
6.80000, 98.
6.83000, 138.
6.86000, 177.
6.89000, 261.
6.92000, 469.
6.95000, 919.
6.98000, 1422.
7.01000, 2227.
7.04000, 2722.
7.07000, 2596.
7.10000, 2128.
7.13000, 1346.
7.16000, 773.
7.19000, 348.
7.22000, 169.
7.25000, 105.
7.28000, 61.
7.31000, 75.
7.34000, 63.
7.37000, 70.
7.40000, 86.
7.43000, 85.
7.46000, 115.
7.49000, 93.
7.52000, 91.
7.55000, 89.
7.58000, 67.
7.61000, 74.
7.64000, 93.
7.67000, 72.
7.70000, 60.
7.73000, 73.
7.76000, 71.
7.79000, 87.
7.82000, 94.
7.85000, 88.
7.88000, 102.
7.91000, 102.
7.94000, 114.
7.97000, 129.
8.00000, 126.
8.03000, 164.
8.06000, 179.
8.09000, 167.
8.12000, 187.
8.15000, 134.
8.18000, 143.
8.21000, 126.
8.24000, 107.
8.27000, 119.
8.30000, 115.
8.33000, 105.
8.36000, 111.
8.39000, 102.
8.42000, 81.
8.45000, 106.
8.48000, 94.
8.51000, 151.
8.54000, 177.
8.57000, 243.
8.60000, 249.
8.63000, 250.
8.66000, 265.
8.69000, 229.
8.72000, 181.
8.75000, 128.
8.78000, 119.
8.81000, 122.
8.84000, 118.
8.87000, 121.
8.90000, 106.
8.93000, 99.
8.96000, 107.
8.99000, 121.
9.02000, 110.
9.05000, 107.
9.08000, 111.
9.11000, 101.
9.14000, 130.
9.17000, 119.
9.20000, 118.
9.23000, 135.
9.26000, 120.
9.29000, 105.
9.32000, 129.
9.35000, 133.
9.38000, 105.
9.41000, 127.
9.44000, 134.
9.47000, 147.
9.50000, 125.
9.53000, 129.
9.56000, 128.
9.59000, 152.
9.62000, 111.
9.65000, 129.
9.68000, 120.
9.71000, 123.
9.74000, 125.
9.77000, 124.
9.80000, 119.
9.83000, 129.
9.86000, 116.
9.89000, 109.
9.92000, 102.
9.95000, 122.
9.98000, 117.
10.01000, 128.
10.04000, 126.
10.07000, 116.
10.10000, 108.
10.13000, 127.
10.16000, 149.
10.19000, 123.
10.22000, 135.
10.25000, 106.
10.28000, 126.
10.31000, 133.
10.34000, 142.
10.37000, 153.
10.40000, 136.
10.43000, 183.
10.46000, 196.
10.49000, 210.
10.52000, 211.
10.55000, 283.
10.58000, 238.
10.61000, 185.
10.64000, 178.
10.67000, 150.
10.70000, 151.
10.73000, 131.
10.76000, 114.
10.79000, 125.
10.82000, 110.
10.85000, 131.
10.88000, 132.
10.91000, 134.
10.94000, 145.
10.97000, 132.
11.00000, 130.
11.03000, 110.
11.06000, 131.
11.09000, 135.
11.12000, 148.
11.15000, 126.
11.18000, 128.
11.21000, 142.
11.24000, 144.
11.27000, 139.
11.30000, 136.
11.33000, 120.
11.36000, 131.
11.39000, 129.
11.42000, 129.
11.45000, 132.
11.48000, 143.
11.51000, 135.
11.54000, 146.
11.57000, 133.
11.60000, 127.
11.63000, 133.
11.66000, 108.
11.69000, 127.
11.72000, 124.
11.75000, 146.
11.78000, 158.
11.81000, 150.
11.84000, 151.
11.87000, 145.
11.90000, 130.
11.93000, 167.
11.96000, 128.
11.99000, 139.
12.02000, 124.
12.05000, 150.
12.08000, 138.
12.11000, 136.
12.14000, 141.
12.17000, 136.
12.20000, 134.
12.23000, 151.
12.26000, 140.
12.29000, 134.
12.32000, 155.
12.35000, 135.
12.38000, 140.
12.41000, 159.
12.44000, 159.
12.47000, 162.
12.50000, 185.
12.53000, 195.
12.56000, 272.
12.59000, 225.
12.62000, 274.
12.65000, 231.
12.68000, 202.
12.71000, 235.
12.74000, 211.
12.77000, 176.
12.80000, 208.
12.83000, 183.
12.86000, 163.
12.89000, 174.
12.92000, 129.
12.95000, 142.
12.98000, 147.
13.01000, 153.
13.04000, 158.
13.07000, 136.
13.10000, 163.
13.13000, 145.
13.16000, 136.
13.19000, 165.
13.22000, 148.
13.25000, 173.
13.28000, 154.
13.31000, 175.
13.34000, 218.
13.37000, 183.
13.40000, 208.
13.43000, 181.
13.46000, 162.
13.49000, 165.
13.52000, 160.
13.55000, 164.
13.58000, 138.
13.61000, 136.
13.64000, 136.
13.67000, 146.
13.70000, 158.
13.73000, 137.
13.76000, 147.
13.79000, 148.
13.82000, 132.
13.85000, 127.
13.88000, 142.
13.91000, 139.
13.94000, 149.
13.97000, 172.
14.00000, 167.
14.03000, 201.
14.06000, 214.
14.09000, 223.
14.12000, 200.
14.15000, 211.
14.18000, 213.
14.21000, 198.
14.24000, 165.
14.27000, 143.
14.30000, 146.
14.33000, 148.
14.36000, 136.
14.39000, 123.
14.42000, 148.
14.45000, 136.
14.48000, 124.
14.51000, 140.
14.54000, 119.
14.57000, 138.
14.60000, 158.
14.63000, 140.
14.66000, 138.
14.69000, 146.
14.72000, 165.
14.75000, 162.
14.78000, 174.
14.81000, 158.
14.84000, 147.
14.87000, 153.
14.90000, 168.
14.93000, 176.
14.96000, 187.
14.99000, 162.
15.02000, 172.
15.05000, 191.
15.08000, 160.
15.11000, 159.
15.14000, 128.
15.17000, 149.
15.20000, 155.
15.23000, 152.
15.26000, 132.
15.29000, 153.
15.32000, 154.
15.35000, 135.
15.38000, 150.
15.41000, 143.
15.44000, 131.
15.47000, 147.
15.50000, 160.
15.53000, 170.
15.56000, 183.
15.59000, 231.
15.62000, 249.
15.65000, 266.
15.68000, 333.
15.71000, 344.
15.74000, 366.
15.77000, 381.
15.80000, 306.
15.83000, 263.
15.86000, 235.
15.89000, 194.
15.92000, 159.
15.95000, 140.
15.98000, 156.
16.01000, 130.
16.04000, 126.
16.07000, 146.
16.10000, 153.
16.13000, 131.
16.16000, 141.
16.19000, 124.
16.22000, 145.
16.25000, 139.
16.28000, 127.
16.31000, 129.
16.34000, 122.
16.37000, 141.
16.40000, 140.
16.43000, 136.
16.46000, 164.
16.49000, 138.
16.52000, 127.
16.55000, 143.
16.58000, 141.
16.61000, 141.
16.64000, 158.
16.67000, 140.
16.70000, 166.
16.73000, 146.
16.76000, 143.
16.79000, 159.
16.82000, 141.
16.85000, 128.
16.88000, 142.
16.91000, 168.
16.94000, 136.
16.97000, 136.
17.00000, 131.
17.03000, 125.
17.06000, 154.
17.09000, 127.
17.12000, 163.
17.15000, 128.
17.18000, 142.
17.21000, 129.
17.24000, 149.
17.27000, 131.
17.30000, 157.
17.33000, 153.
17.36000, 153.
17.39000, 171.
17.42000, 161.
17.45000, 142.
17.48000, 182.
17.51000, 180.
17.54000, 170.
17.57000, 197.
17.60000, 187.
17.63000, 200.
17.66000, 211.
17.69000, 186.
17.72000, 213.
17.75000, 191.
17.78000, 201.
17.81000, 178.
17.84000, 198.
17.87000, 210.
17.90000, 188.
17.93000, 176.
17.96000, 192.
17.99000, 194.
18.02000, 210.
18.05000, 209.
18.08000, 211.
18.11000, 228.
18.14000, 228.
18.17000, 249.
18.20000, 262.
18.23000, 267.
18.26000, 301.
18.29000, 304.
18.32000, 344.
18.35000, 338.
18.38000, 380.
18.41000, 399.
18.44000, 455.
18.47000, 495.
18.50000, 528.
18.53000, 584.
18.56000, 623.
18.59000, 627.
18.62000, 652.
18.65000, 700.
18.68000, 780.
18.71000, 833.
18.74000, 787.
18.77000, 834.
18.80000, 854.
18.83000, 810.
18.86000, 778.
18.89000, 822.
18.92000, 776.
18.95000, 717.
18.98000, 672.
19.01000, 613.
19.04000, 610.
19.07000, 536.
19.10000, 497.
19.13000, 449.
19.16000, 409.
19.19000, 410.
19.22000, 345.
19.25000, 325.
19.28000, 337.
19.31000, 284.
19.34000, 279.
19.37000, 234.
19.40000, 255.
19.43000, 267.
19.46000, 202.
19.49000, 202.
19.52000, 200.
19.55000, 202.
19.58000, 191.
19.61000, 165.
19.64000, 174.
19.67000, 190.
19.70000, 165.
19.73000, 165.
19.76000, 136.
19.79000, 129.
19.82000, 158.
19.85000, 170.
19.88000, 196.
19.91000, 239.
19.94000, 266.
19.97000, 307.
20.00000, 338.
20.03000, 368.
20.06000, 428.
20.09000, 521.
20.12000, 538.
20.15000, 519.
20.18000, 506.
20.21000, 515.
20.24000, 447.
20.27000, 369.
20.30000, 265.
20.33000, 297.
20.36000, 202.
20.39000, 157.
20.42000, 139.
20.45000, 168.
20.48000, 157.
20.51000, 166.
20.54000, 142.
20.57000, 160.
20.60000, 173.
20.63000, 165.
20.66000, 164.
20.69000, 184.
20.72000, 171.
20.75000, 186.
20.78000, 187.
20.81000, 220.
20.84000, 195.
20.87000, 217.
20.90000, 204.
20.93000, 221.
20.96000, 249.
20.99000, 214.
21.02000, 239.
21.05000, 221.
21.08000, 241.
21.11000, 221.
21.14000, 199.
21.17000, 181.
21.20000, 210.
21.23000, 157.
21.26000, 167.
21.29000, 182.
21.32000, 184.
21.35000, 142.
21.38000, 156.
21.41000, 130.
21.44000, 146.
21.47000, 155.
21.50000, 131.
21.53000, 146.
21.56000, 119.
21.59000, 129.
21.62000, 109.
21.65000, 123.
21.68000, 114.
21.71000, 96.
21.74000, 103.
21.77000, 118.
21.80000, 98.
21.83000, 93.
21.86000, 97.
21.89000, 81.
21.92000, 95.
21.95000, 91.
21.98000, 88.
22.01000, 81.
22.04000, 74.
22.07000, 94.
22.10000, 74.
22.13000, 97.
22.16000, 83.
22.19000, 69.
22.22000, 89.
22.25000, 67.
22.28000, 64.
22.31000, 81.
22.34000, 71.
22.37000, 76.
22.40000, 79.
22.43000, 72.
22.46000, 82.
22.49000, 90.
22.52000, 98.
22.55000, 101.
22.58000, 93.
22.61000, 113.
22.64000, 133.
22.67000, 130.
22.70000, 142.
22.73000, 141.
22.76000, 108.
22.79000, 90.
22.82000, 94.
22.85000, 95.
22.88000, 84.
22.91000, 65.
22.94000, 63.
22.97000, 77.
23.00000, 70.
23.03000, 79.
23.06000, 88.
23.09000, 89.
23.12000, 85.
23.15000, 80.
23.18000, 70.
23.21000, 66.
23.24000, 76.
23.27000, 58.
23.30000, 60.
23.33000, 71.
23.36000, 72.
23.39000, 59.
23.42000, 66.
23.45000, 56.
23.48000, 44.
23.51000, 55.
23.54000, 62.
23.57000, 57.
23.60000, 54.
23.63000, 63.
23.66000, 68.
23.69000, 68.
23.72000, 65.
23.75000, 58.
23.78000, 53.
23.81000, 65.
23.84000, 66.
23.87000, 53.
23.90000, 56.
23.93000, 58.
23.96000, 64.
23.99000, 68.
24.02000, 76.
24.05000, 65.
24.08000, 59.
24.11000, 71.
24.14000, 63.
24.17000, 55.
24.20000, 58.
24.23000, 50.
24.26000, 58.
24.29000, 51.
24.32000, 59.
24.35000, 63.
24.38000, 62.
24.41000, 70.
24.44000, 51.
24.47000, 65.
24.50000, 56.
24.53000, 69.
24.56000, 65.
24.59000, 62.
24.62000, 54.
24.65000, 50.
24.68000, 48.
24.71000, 69.
24.74000, 56.
24.77000, 58.
24.80000, 73.
24.83000, 65.
24.86000, 54.
24.89000, 56.
24.92000, 69.
24.95000, 64.
24.98000, 64.
25.01000, 60.
25.04000, 81.
25.07000, 65.
25.10000, 60.
25.13000, 74.
25.16000, 58.
25.19000, 48.
25.22000, 67.
25.25000, 70.
25.28000, 69.
25.31000, 81.
25.34000, 70.
25.37000, 62.
25.40000, 50.
25.43000, 63.
25.46000, 59.
25.49000, 60.
25.52000, 60.
25.55000, 59.
25.58000, 48.
25.61000, 82.
25.64000, 58.
25.67000, 56.
25.70000, 58.
25.73000, 52.
25.76000, 62.
25.79000, 47.
25.82000, 57.
25.85000, 39.
25.88000, 59.
25.91000, 52.
25.94000, 56.
25.97000, 44.
26.00000, 49.
26.03000, 55.
26.06000, 46.
26.09000, 36.
26.12000, 43.
26.15000, 65.
26.18000, 57.
26.21000, 59.
26.24000, 61.
26.27000, 55.
26.30000, 44.
26.33000, 37.
26.36000, 50.
26.39000, 48.
26.42000, 37.
26.45000, 58.
26.48000, 51.
26.51000, 48.
26.54000, 53.
26.57000, 56.
26.60000, 39.
26.63000, 45.
26.66000, 45.
26.69000, 60.
26.72000, 50.
26.75000, 49.
26.78000, 38.
26.81000, 40.
26.84000, 59.
26.87000, 48.
26.90000, 45.
26.93000, 48.
26.96000, 48.
26.99000, 35.
27.02000, 40.
27.05000, 41.
27.08000, 56.
27.11000, 50.
27.14000, 44.
27.17000, 49.
27.20000, 45.
27.23000, 51.
27.26000, 51.
27.29000, 48.
27.32000, 44.
27.35000, 57.
27.38000, 46.
27.41000, 47.
27.44000, 51.
27.47000, 56.
27.50000, 50.
27.53000, 50.
27.56000, 36.
27.59000, 51.
27.62000, 42.
27.65000, 47.
27.68000, 52.
27.71000, 44.
27.74000, 56.
27.77000, 28.
27.80000, 43.
27.83000, 41.
27.86000, 47.
27.89000, 35.
27.92000, 31.
27.95000, 37.
27.98000, 45.
28.01000, 27.
28.04000, 42.
28.07000, 42.
28.10000, 37.
28.13000, 45.
28.16000, 35.
28.19000, 33.
28.22000, 33.
28.25000, 46.
28.28000, 36.
28.31000, 46.
28.34000, 33.
28.37000, 38.
28.40000, 50.
28.43000, 47.
28.46000, 39.
28.49000, 46.
28.52000, 44.
28.55000, 30.
28.58000, 51.
28.61000, 34.
28.64000, 45.
28.67000, 35.
28.70000, 49.
28.73000, 44.
28.76000, 44.
28.79000, 38.
28.82000, 34.
28.85000, 47.
28.88000, 29.
28.91000, 31.
28.94000, 33.
28.97000, 37.
29.00000, 45.
29.03000, 35.
29.06000, 27.
29.09000, 37.
29.12000, 47.
29.15000, 39.
29.18000, 46.
29.21000, 36.
29.24000, 30.
29.27000, 36.
29.30000, 38.
29.33000, 33.
29.36000, 41.
29.39000, 36.
29.42000, 41.
29.45000, 36.
29.48000, 14.
29.51000, 33.
29.54000, 35.
29.57000, 44.
29.60000, 48.
29.63000, 39.
29.66000, 40.
29.69000, 43.
29.72000, 27.
29.75000, 37.
29.78000, 35.
29.81000, 39.
29.84000, 36.
29.87000, 25.
29.90000, 43.
29.93000, 39.
29.96000, 38.
29.99000, 22.
30.02000, 32.
30.05000, 45.
30.08000, 33.
30.11000, 33.
30.14000, 30.
30.17000, 44.
30.20000, 28.
30.23000, 31.
30.26000, 35.
30.29000, 35.
30.32000, 38.
30.35000, 28.
30.38000, 31.
30.41000, 34.
30.44000, 36.
30.47000, 35.
30.50000, 26.
30.53000, 33.
30.56000, 20.
30.59000, 33.
30.62000, 27.
30.65000, 29.
30.68000, 28.
30.71000, 26.
30.74000, 37.
30.77000, 33.
30.80000, 30.
30.83000, 32.
30.86000, 35.
30.89000, 28.
30.92000, 31.
30.95000, 28.
30.98000, 29.
31.01000, 38.
31.04000, 26.
31.07000, 28.
31.10000, 33.
31.13000, 25.
31.16000, 30.
31.19000, 25.
31.22000, 32.
31.25000, 21.
31.28000, 34.
31.31000, 21.
31.34000, 19.
31.37000, 28.
31.40000, 28.
31.43000, 23.
31.46000, 38.
31.49000, 28.
31.52000, 33.
31.55000, 14.
31.58000, 32.
31.61000, 26.
31.64000, 30.
31.67000, 24.
31.70000, 25.
31.73000, 40.
31.76000, 26.
31.79000, 35.
31.82000, 34.
31.85000, 22.
31.88000, 36.
31.91000, 23.
31.94000, 31.
31.97000, 23.
32.00000, 22.
32.03000, 32.
32.06000, 30.
32.09000, 41.
32.12000, 30.
32.15000, 23.
32.18000, 29.
32.21000, 28.
32.24000, 23.
32.27000, 35.
32.30000, 28.
32.33000, 30.
32.36000, 25.
32.39000, 22.
32.42000, 25.
32.45000, 24.
32.48000, 20.
32.51000, 32.
32.54000, 26.
32.57000, 23.
32.60000, 33.
32.63000, 24.
32.66000, 30.
32.69000, 31.
32.72000, 30.
32.75000, 19.
32.78000, 19.
32.81000, 28.
32.84000, 34.
32.87000, 26.
32.90000, 26.
32.93000, 29.
32.96000, 15.
32.99000, 22.
33.02000, 21.
33.05000, 28.
33.08000, 25.
33.11000, 17.
33.14000, 24.
33.17000, 21.
33.20000, 19.
33.23000, 25.
33.26000, 17.
33.29000, 17.
33.32000, 24.
33.35000, 19.
33.38000, 24.
33.41000, 25.
33.44000, 18.
33.47000, 23.
33.50000, 11.
33.53000, 29.
33.56000, 24.
33.59000, 18.
33.62000, 17.
33.65000, 21.
33.68000, 18.
33.71000, 19.
33.74000, 20.
33.77000, 22.
33.80000, 13.
33.83000, 19.
33.86000, 30.
33.89000, 28.
33.92000, 19.
33.95000, 15.
33.98000, 20.
34.01000, 17.
34.04000, 20.
34.07000, 17.
34.10000, 20.
34.13000, 23.
34.16000, 19.
34.19000, 14.
34.22000, 10.
34.25000, 20.
34.28000, 16.
34.31000, 21.
34.34000, 14.
34.37000, 23.
34.40000, 8.
34.43000, 25.
34.46000, 22.
34.49000, 16.
34.52000, 14.
34.55000, 24.
34.58000, 13.
34.61000, 10.
34.64000, 17.
34.67000, 19.
34.70000, 26.
34.73000, 16.
34.76000, 16.
34.79000, 18.
34.82000, 13.
34.85000, 18.
34.88000, 17.
34.91000, 15.
34.94000, 17.
34.97000, 11.
35.00000, 21.
35.03000, 17.
35.06000, 20.
35.09000, 11.
35.12000, 12.
35.15000, 13.
35.18000, 21.
35.21000, 14.
35.24000, 10.
35.27000, 19.
35.30000, 14.
35.33000, 23.
35.36000, 12.
35.39000, 16.
35.42000, 12.
35.45000, 26.
35.48000, 11.
35.51000, 19.
35.54000, 26.
35.57000, 14.
35.60000, 25.
35.63000, 13.
35.66000, 12.
35.69000, 16.
35.72000, 12.
35.75000, 15.
35.78000, 13.
35.81000, 17.
35.84000, 25.
35.87000, 20.
35.90000, 11.
35.93000, 16.
35.96000, 12.
35.99000, 19.
36.02000, 17.
36.05000, 8.
36.08000, 14.
36.11000, 13.
36.14000, 14.
36.17000, 16.
36.20000, 13.
36.23000, 12.
36.26000, 20.
36.29000, 17.
36.32000, 14.
36.35000, 10.
36.38000, 13.
36.41000, 11.
36.44000, 14.
36.47000, 13.
36.50000, 10.
36.53000, 21.
36.56000, 10.
36.59000, 12.
36.62000, 10.
36.65000, 10.
36.68000, 15.
36.71000, 11.
36.74000, 16.
36.77000, 8.
36.80000, 14.
36.83000, 10.
36.86000, 6.
36.89000, 9.
36.92000, 8.
36.95000, 8.
36.98000, 7.
37.01000, 8.
37.04000, 10.
37.07000, 10.
37.10000, 15.
37.13000, 8.
37.16000, 7.
37.19000, 10.
37.22000, 11.
37.25000, 13.
37.28000, 7.
37.31000, 10.
37.34000, 8.
37.37000, 14.
37.40000, 11.
37.43000, 11.
37.46000, 12.
37.49000, 9.
37.52000, 12.
37.55000, 7.
37.58000, 12.
37.61000, 14.
37.64000, 9.
37.67000, 11.
37.70000, 13.
37.73000, 13.
37.76000, 15.
37.79000, 12.
37.82000, 9.
37.85000, 9.
37.88000, 14.
37.91000, 3.
37.94000, 10.
37.97000, 4.
38.00000, 6.
38.03000, 8.
38.06000, 6.
38.09000, 13.
38.12000, 11.
38.15000, 9.
38.18000, 9.
38.21000, 5.
38.24000, 6.
38.27000, 7.
38.30000, 4.
38.33000, 9.
38.36000, 7.
38.39000, 6.
38.42000, 10.
38.45000, 4.
38.48000, 8.
38.51000, 7.
38.54000, 8.
38.57000, 10.
38.60000, 7.
38.63000, 8.
38.66000, 7.
38.69000, 7.
38.72000, 6.
38.75000, 11.
38.78000, 9.
38.81000, 3.
38.84000, 4.
38.87000, 6.
38.90000, 4.
38.93000, 7.
38.96000, 8.
38.99000, 6.
39.02000, 3.
39.05000, 3.
39.08000, 10.
39.11000, 6.
39.14000, 6.
39.17000, 7.
39.20000, 9.
39.23000, 6.
39.26000, 4.
39.29000, 6.
39.32000, 4.
39.35000, 6.
39.38000, 4.
39.41000, 12.
39.44000, 10.
39.47000, 4.
39.50000, 8.
39.53000, 6.
39.56000, 6.
39.59000, 9.
39.62000, 8.
39.65000, 8.
39.68000, 2.
39.71000, 8.
39.74000, 5.
39.77000, 5.
39.80000, 5.
39.83000, 5.
39.86000, 4.
39.89000, 5.
39.92000, 2.
39.95000, 0.
39.98000, 5.
40.01000, 7.
40.04000, 5.
40.07000, 3.
40.10000, 4.
40.13000, 7.
40.16000, 6.
40.19000, 2.
40.22000, 8.
40.25000, 4.
40.28000, 5.
40.31000, 7.
40.34000, 7.
40.37000, 4.
40.40000, 4.
40.43000, 4.
40.46000, 4.
40.49000, 6.
40.52000, 3.
40.55000, 0.
#ENDOFDATA   :