File: sample_data/data/STDS standard.txt
#FORMAT      : EMSA/MAS Spectral Data File
#VERSION     : 1.0
#TITLE       : Spectrum 20
#DATE        : 21-AUG-2025
#TIME        : 15:24
#OWNER       : XGT7200
#NPOINTS     : 4096.
#NCOLUMNS    : 1.
#XUNITS      : keV
#YUNITS      : counts
#DATATYPE    : XY
#XPERCHAN    : 0.0100000
#OFFSET      : -0.400000
#SIGNALTYPE  : EDS
#CHOFFSET    : 40.0000
#LIVETIME    : 30
#REALTIME    : 39.8294
#BEAMKV      : 50.0000
#PROBECUR    : 706000.
#MAGCAM      : 100.000
#XTILTSTGE   : 0.0
#AZIMANGLE   : 0.0
#ELEVANGLE   : 45.0
#XPOSITION mm: 0.0000
#YPOSITION mm: 0.0000
#ZPOSITION mm: 0.0000
##OXINSTPT   : 4
##OXINSTSTROB: 71.96
#SPECTRUM    : Spectral Data Starts Here
-0.40000, 0.
-0.37000, 0.
-0.34000, 0.
-0.31000, 0.
-0.28000, 0.
-0.25000, 0.
-0.22000, 0.
-0.19000, 0.
-0.16000, 0.
-0.13000, 0.
-0.10000, 0.
-0.07000, 0.
-0.04000, 0.
-0.01000, 0.
0.02000, 0.
0.05000, 0.
0.08000, 0.
0.11000, 0.
0.14000, 0.
0.17000, 0.
0.20000, 0.
0.23000, 0.
0.26000, 0.
0.29000, 0.
0.32000, 1.
0.35000, 2.
0.38000, 8.
0.41000, 29.
0.44000, 45.
0.47000, 52.
0.50000, 44.
0.53000, 36.
0.56000, 39.
0.59000, 41.
0.62000, 32.
0.65000, 45.
0.68000, 42.
0.71000, 35.
0.74000, 31.
0.77000, 27.
0.80000, 40.
0.83000, 38.
0.86000, 32.
0.89000, 34.
0.92000, 37.
0.95000, 47.
0.98000, 38.
1.01000, 41.
1.04000, 39.
1.07000, 45.
1.10000, 55.
1.13000, 33.
1.16000, 33.
1.19000, 66.
1.22000, 72.
1.25000, 103.
1.28000, 87.
1.31000, 75.
1.34000, 44.
1.37000, 50.
1.40000, 99.
1.43000, 307.
1.46000, 658.
1.49000, 938.
1.52000, 766.
1.55000, 403.
1.58000, 134.
1.61000, 89.
1.64000, 285.
1.67000, 1157.
1.70000, 3096.
1.73000, 5157.
1.76000, 5260.
1.79000, 3182.
1.82000, 1458.
1.85000, 503.
1.88000, 199.
1.91000, 116.
1.94000, 79.
1.97000, 86.
2.00000, 85.
2.03000, 80.
2.06000, 56.
2.09000, 39.
2.12000, 37.
2.15000, 31.
2.18000, 23.
2.21000, 39.
2.24000, 39.
2.27000, 70.
2.30000, 68.
2.33000, 77.
2.36000, 59.
2.39000, 42.
2.42000, 36.
2.45000, 29.
2.48000, 40.
2.51000, 36.
2.54000, 61.
2.57000, 54.
2.60000, 101.
2.63000, 204.
2.66000, 364.
2.69000, 517.
2.72000, 486.
2.75000, 362.
2.78000, 275.
2.81000, 214.
2.84000, 250.
2.87000, 224.
2.90000, 163.
2.93000, 121.
2.96000, 102.
2.99000, 63.
3.02000, 56.
3.05000, 35.
3.08000, 38.
3.11000, 29.
3.14000, 33.
3.17000, 62.
3.20000, 86.
3.23000, 176.
3.26000, 410.
3.29000, 698.
3.32000, 797.
3.35000, 635.
3.38000, 394.
3.41000, 179.
3.44000, 81.
3.47000, 59.
3.50000, 65.
3.53000, 113.
3.56000, 183.
3.59000, 385.
3.62000, 757.
3.65000, 1300.
3.68000, 1802.
3.71000, 1824.
3.74000, 1269.
3.77000, 687.
3.80000, 246.
3.83000, 75.
3.86000, 47.
3.89000, 49.
3.92000, 85.
3.95000, 146.
3.98000, 256.
4.01000, 275.
4.04000, 245.
4.07000, 182.
4.10000, 111.
4.13000, 56.
4.16000, 30.
4.19000, 30.
4.22000, 30.
4.25000, 34.
4.28000, 38.
4.31000, 29.
4.34000, 39.
4.37000, 61.
4.40000, 105.
4.43000, 219.
4.46000, 385.
4.49000, 517.
4.52000, 534.
4.55000, 440.
4.58000, 287.
4.61000, 156.
4.64000, 128.
4.67000, 133.
4.70000, 95.
4.73000, 67.
4.76000, 78.
4.79000, 69.
4.82000, 73.
4.85000, 73.
4.88000, 113.
4.91000, 141.
4.94000, 161.
4.97000, 127.
5.00000, 110.
5.03000, 81.
5.06000, 63.
5.09000, 60.
5.12000, 46.
5.15000, 53.
5.18000, 47.
5.21000, 64.
5.24000, 55.
5.27000, 57.
5.30000, 65.
5.33000, 59.
5.36000, 83.
5.39000, 82.
5.42000, 108.
5.45000, 101.
5.48000, 88.
5.51000, 73.
5.54000, 63.
5.57000, 60.
5.60000, 46.
5.63000, 58.
5.66000, 44.
5.69000, 66.
5.72000, 54.
5.75000, 82.
5.78000, 87.
5.81000, 174.
5.84000, 265.
5.87000, 334.
5.90000, 357.
5.93000, 354.
5.96000, 236.
5.99000, 181.
6.02000, 97.
6.05000, 85.
6.08000, 95.
6.11000, 105.
6.14000, 94.
6.17000, 137.
6.20000, 248.
6.23000, 576.
6.26000, 1538.
6.29000, 3872.
6.32000, 7893.
6.35000, 12784.
6.38000, 17101.
6.41000, 17756.
6.44000, 14133.
6.47000, 9177.
6.50000, 4703.
6.53000, 2040.
6.56000, 686.
6.59000, 257.
6.62000, 142.
6.65000, 107.
6.68000, 104.
6.71000, 119.
6.74000, 109.
6.77000, 112.
6.80000, 120.
6.83000, 133.
6.86000, 192.
6.89000, 269.
6.92000, 499.
6.95000, 895.
6.98000, 1597.
7.01000, 2295.
7.04000, 2770.
7.07000, 2765.
7.10000, 2236.
7.13000, 1434.
7.16000, 780.
7.19000, 330.
7.22000, 162.
7.25000, 104.
7.28000, 86.
7.31000, 74.
7.34000, 75.
7.37000, 86.
7.40000, 89.
7.43000, 94.
7.46000, 73.
7.49000, 89.
7.52000, 89.
7.55000, 90.
7.58000, 81.
7.61000, 80.
7.64000, 70.
7.67000, 69.
7.70000, 88.
7.73000, 91.
7.76000, 83.
7.79000, 83.
7.82000, 104.
7.85000, 110.
7.88000, 107.
7.91000, 91.
7.94000, 108.
7.97000, 109.
8.00000, 135.
8.03000, 143.
8.06000, 143.
8.09000, 149.
8.12000, 163.
8.15000, 130.
8.18000, 114.
8.21000, 132.
8.24000, 121.
8.27000, 119.
8.30000, 95.
8.33000, 108.
8.36000, 96.
8.39000, 107.
8.42000, 99.
8.45000, 86.
8.48000, 95.
8.51000, 142.
8.54000, 172.
8.57000, 219.
8.60000, 200.
8.63000, 266.
8.66000, 248.
8.69000, 190.
8.72000, 166.
8.75000, 172.
8.78000, 133.
8.81000, 109.
8.84000, 117.
8.87000, 111.
8.90000, 96.
8.93000, 113.
8.96000, 110.
8.99000, 101.
9.02000, 113.
9.05000, 96.
9.08000, 96.
9.11000, 100.
9.14000, 132.
9.17000, 124.
9.20000, 123.
9.23000, 140.
9.26000, 130.
9.29000, 119.
9.32000, 113.
9.35000, 106.
9.38000, 116.
9.41000, 118.
9.44000, 114.
9.47000, 127.
9.50000, 125.
9.53000, 129.
9.56000, 128.
9.59000, 135.
9.62000, 134.
9.65000, 140.
9.68000, 130.
9.71000, 103.
9.74000, 123.
9.77000, 111.
9.80000, 119.
9.83000, 99.
9.86000, 120.
9.89000, 110.
9.92000, 106.
9.95000, 120.
9.98000, 127.
10.01000, 115.
10.04000, 117.
10.07000, 119.
10.10000, 116.
10.13000, 121.
10.16000, 114.
10.19000, 141.
10.22000, 136.
10.25000, 103.
10.28000, 114.
10.31000, 131.
10.34000, 120.
10.37000, 132.
10.40000, 140.
10.43000, 148.
10.46000, 156.
10.49000, 156.
10.52000, 163.
10.55000, 147.
10.58000, 152.
10.61000, 153.
10.64000, 155.
10.67000, 131.
10.70000, 115.
10.73000, 123.
10.76000, 100.
10.79000, 121.
10.82000, 145.
10.85000, 145.
10.88000, 122.
10.91000, 144.
10.94000, 135.
10.97000, 121.
11.00000, 146.
11.03000, 125.
11.06000, 132.
11.09000, 123.
11.12000, 137.
11.15000, 148.
11.18000, 119.
11.21000, 127.
11.24000, 106.
11.27000, 120.
11.30000, 134.
11.33000, 144.
11.36000, 136.
11.39000, 140.
11.42000, 128.
11.45000, 148.
11.48000, 146.
11.51000, 162.
11.54000, 134.
11.57000, 121.
11.60000, 116.
11.63000, 117.
11.66000, 145.
11.69000, 143.
11.72000, 134.
11.75000, 122.
11.78000, 134.
11.81000, 114.
11.84000, 125.
11.87000, 114.
11.90000, 140.
11.93000, 132.
11.96000, 145.
11.99000, 136.
12.02000, 129.
12.05000, 123.
12.08000, 140.
12.11000, 142.
12.14000, 144.
12.17000, 141.
12.20000, 142.
12.23000, 130.
12.26000, 127.
12.29000, 145.
12.32000, 134.
12.35000, 155.
12.38000, 145.
12.41000, 131.
12.44000, 144.
12.47000, 155.
12.50000, 165.
12.53000, 166.
12.56000, 149.
12.59000, 164.
12.62000, 154.
12.65000, 171.
12.68000, 165.
12.71000, 197.
12.74000, 185.
12.77000, 170.
12.80000, 193.
12.83000, 212.
12.86000, 182.
12.89000, 152.
12.92000, 163.
12.95000, 164.
12.98000, 153.
13.01000, 155.
13.04000, 164.
13.07000, 129.
13.10000, 132.
13.13000, 173.
13.16000, 165.
13.19000, 156.
13.22000, 188.
13.25000, 191.
13.28000, 202.
13.31000, 233.
13.34000, 230.
13.37000, 244.
13.40000, 267.
13.43000, 227.
13.46000, 206.
13.49000, 178.
13.52000, 175.
13.55000, 177.
13.58000, 159.
13.61000, 158.
13.64000, 122.
13.67000, 140.
13.70000, 136.
13.73000, 154.
13.76000, 143.
13.79000, 131.
13.82000, 138.
13.85000, 151.
13.88000, 139.
13.91000, 165.
13.94000, 191.
13.97000, 219.
14.00000, 279.
14.03000, 369.
14.06000, 445.
14.09000, 467.
14.12000, 528.
14.15000, 559.
14.18000, 461.
14.21000, 399.
14.24000, 316.
14.27000, 263.
14.30000, 185.
14.33000, 160.
14.36000, 148.
14.39000, 158.
14.42000, 135.
14.45000, 121.
14.48000, 139.
14.51000, 121.
14.54000, 116.
14.57000, 155.
14.60000, 137.
14.63000, 127.
14.66000, 124.
14.69000, 165.
14.72000, 157.
14.75000, 167.
14.78000, 163.
14.81000, 173.
14.84000, 166.
14.87000, 169.
14.90000, 213.
14.93000, 196.
14.96000, 186.
14.99000, 172.
15.02000, 162.
15.05000, 144.
15.08000, 164.
15.11000, 133.
15.14000, 137.
15.17000, 151.
15.20000, 141.
15.23000, 140.
15.26000, 137.
15.29000, 126.
15.32000, 127.
15.35000, 139.
15.38000, 133.
15.41000, 137.
15.44000, 142.
15.47000, 160.
15.50000, 144.
15.53000, 171.
15.56000, 187.
15.59000, 219.
15.62000, 219.
15.65000, 254.
15.68000, 292.
15.71000, 337.
15.74000, 358.
15.77000, 321.
15.80000, 307.
15.83000, 281.
15.86000, 272.
15.89000, 192.
15.92000, 212.
15.95000, 188.
15.98000, 150.
16.01000, 155.
16.04000, 158.
16.07000, 170.
16.10000, 128.
16.13000, 159.
16.16000, 151.
16.19000, 141.
16.22000, 119.
16.25000, 142.
16.28000, 113.
16.31000, 136.
16.34000, 113.
16.37000, 132.
16.40000, 127.
16.43000, 145.
16.46000, 159.
16.49000, 162.
16.52000, 154.
16.55000, 174.
16.58000, 155.
16.61000, 156.
16.64000, 154.
16.67000, 123.
16.70000, 145.
16.73000, 150.
16.76000, 143.
16.79000, 153.
16.82000, 131.
16.85000, 143.
16.88000, 156.
16.91000, 135.
16.94000, 138.
16.97000, 141.
17.00000, 130.
17.03000, 132.
17.06000, 157.
17.09000, 164.
17.12000, 150.
17.15000, 146.
17.18000, 152.
17.21000, 165.
17.24000, 147.
17.27000, 146.
17.30000, 137.
17.33000, 162.
17.36000, 164.
17.39000, 160.
17.42000, 157.
17.45000, 188.
17.48000, 183.
17.51000, 176.
17.54000, 175.
17.57000, 199.
17.60000, 176.
17.63000, 184.
17.66000, 181.
17.69000, 207.
17.72000, 202.
17.75000, 178.
17.78000, 196.
17.81000, 158.
17.84000, 186.
17.87000, 180.
17.90000, 207.
17.93000, 190.
17.96000, 200.
17.99000, 214.
18.02000, 216.
18.05000, 211.
18.08000, 227.
18.11000, 224.
18.14000, 236.
18.17000, 246.
18.20000, 214.
18.23000, 267.
18.26000, 286.
18.29000, 280.
18.32000, 302.
18.35000, 336.
18.38000, 368.
18.41000, 432.
18.44000, 479.
18.47000, 453.
18.50000, 534.
18.53000, 604.
18.56000, 587.
18.59000, 609.
18.62000, 687.
18.65000, 758.
18.68000, 775.
18.71000, 790.
18.74000, 837.
18.77000, 785.
18.80000, 802.
18.83000, 853.
18.86000, 824.
18.89000, 736.
18.92000, 770.
18.95000, 789.
18.98000, 680.
19.01000, 632.
19.04000, 596.
19.07000, 544.
19.10000, 500.
19.13000, 462.
19.16000, 416.
19.19000, 402.
19.22000, 371.
19.25000, 345.
19.28000, 320.
19.31000, 307.
19.34000, 302.
19.37000, 246.
19.40000, 242.
19.43000, 230.
19.46000, 218.
19.49000, 211.
19.52000, 193.
19.55000, 208.
19.58000, 170.
19.61000, 175.
19.64000, 179.
19.67000, 148.
19.70000, 161.
19.73000, 148.
19.76000, 161.
19.79000, 146.
19.82000, 170.
19.85000, 178.
19.88000, 200.
19.91000, 267.
19.94000, 229.
19.97000, 305.
20.00000, 352.
20.03000, 405.
20.06000, 451.
20.09000, 499.
20.12000, 537.
20.15000, 569.
20.18000, 522.
20.21000, 476.
20.24000, 423.
20.27000, 351.
20.30000, 298.
20.33000, 231.
20.36000, 171.
20.39000, 168.
20.42000, 149.
20.45000, 162.
20.48000, 161.
20.51000, 153.
20.54000, 135.
20.57000, 126.
20.60000, 159.
20.63000, 183.
20.66000, 171.
20.69000, 176.
20.72000, 188.
20.75000, 176.
20.78000, 196.
20.81000, 226.
20.84000, 216.
20.87000, 217.
20.90000, 222.
20.93000, 204.
20.96000, 219.
20.99000, 216.
21.02000, 238.
21.05000, 226.
21.08000, 217.
21.11000, 186.
21.14000, 221.
21.17000, 202.
21.20000, 193.
21.23000, 181.
21.26000, 165.
21.29000, 180.
21.32000, 181.
21.35000, 166.
21.38000, 159.
21.41000, 172.
21.44000, 155.
21.47000, 135.
21.50000, 146.
21.53000, 134.
21.56000, 133.
21.59000, 110.
21.62000, 131.
21.65000, 104.
21.68000, 116.
21.71000, 116.
21.74000, 93.
21.77000, 102.
21.80000, 112.
21.83000, 99.
21.86000, 109.
21.89000, 93.
21.92000, 101.
21.95000, 107.
21.98000, 100.
22.01000, 113.
22.04000, 77.
22.07000, 88.
22.10000, 77.
22.13000, 94.
22.16000, 91.
22.19000, 90.
22.22000, 88.
22.25000, 90.
22.28000, 80.
22.31000, 93.
22.34000, 82.
22.37000, 80.
22.40000, 84.
22.43000, 95.
22.46000, 83.
22.49000, 70.
22.52000, 100.
22.55000, 87.
22.58000, 118.
22.61000, 115.
22.64000, 122.
22.67000, 119.
22.70000, 124.
22.73000, 115.
22.76000, 116.
22.79000, 113.
22.82000, 102.
22.85000, 86.
22.88000, 90.
22.91000, 62.
22.94000, 86.
22.97000, 60.
23.00000, 74.
23.03000, 72.
23.06000, 67.
23.09000, 77.
23.12000, 97.
23.15000, 77.
23.18000, 78.
23.21000, 59.
23.24000, 81.
23.27000, 69.
23.30000, 69.
23.33000, 66.
23.36000, 61.
23.39000, 51.
23.42000, 65.
23.45000, 66.
23.48000, 59.
23.51000, 63.
23.54000, 65.
23.57000, 70.
23.60000, 61.
23.63000, 68.
23.66000, 71.
23.69000, 53.
23.72000, 62.
23.75000, 64.
23.78000, 59.
23.81000, 71.
23.84000, 68.
23.87000, 58.
23.90000, 61.
23.93000, 61.
23.96000, 65.
23.99000, 70.
24.02000, 70.
24.05000, 51.
24.08000, 58.
24.11000, 66.
24.14000, 60.
24.17000, 58.
24.20000, 57.
24.23000, 57.
24.26000, 45.
24.29000, 65.
24.32000, 67.
24.35000, 61.
24.38000, 58.
24.41000, 51.
24.44000, 64.
24.47000, 61.
24.50000, 65.
24.53000, 62.
24.56000, 55.
24.59000, 60.
24.62000, 54.
24.65000, 63.
24.68000, 74.
24.71000, 43.
24.74000, 65.
24.77000, 69.
24.80000, 55.
24.83000, 57.
24.86000, 56.
24.89000, 51.
24.92000, 43.
24.95000, 68.
24.98000, 67.
25.01000, 53.
25.04000, 61.
25.07000, 55.
25.10000, 81.
25.13000, 64.
25.16000, 70.
25.19000, 75.
25.22000, 71.
25.25000, 64.
25.28000, 58.
25.31000, 73.
25.34000, 70.
25.37000, 63.
25.40000, 55.
25.43000, 58.
25.46000, 56.
25.49000, 53.
25.52000, 54.
25.55000, 57.
25.58000, 46.
25.61000, 66.
25.64000, 66.
25.67000, 48.
25.70000, 58.
25.73000, 47.
25.76000, 50.
25.79000, 61.
25.82000, 60.
25.85000, 53.
25.88000, 48.
25.91000, 55.
25.94000, 60.
25.97000, 50.
26.00000, 53.
26.03000, 63.
26.06000, 48.
26.09000, 59.
26.12000, 57.
26.15000, 46.
26.18000, 50.
26.21000, 49.
26.24000, 45.
26.27000, 47.
26.30000, 33.
26.33000, 52.
26.36000, 51.
26.39000, 52.
26.42000, 51.
26.45000, 43.
26.48000, 50.
26.51000, 54.
26.54000, 51.
26.57000, 63.
26.60000, 47.
26.63000, 57.
26.66000, 53.
26.69000, 57.
26.72000, 63.
26.75000, 44.
26.78000, 48.
26.81000, 34.
26.84000, 39.
26.87000, 49.
26.90000, 49.
26.93000, 51.
26.96000, 38.
26.99000, 49.
27.02000, 49.
27.05000, 51.
27.08000, 47.
27.11000, 46.
27.14000, 36.
27.17000, 50.
27.20000, 47.
27.23000, 45.
27.26000, 46.
27.29000, 57.
27.32000, 45.
27.35000, 46.
27.38000, 49.
27.41000, 50.
27.44000, 44.
27.47000, 40.
27.50000, 40.
27.53000, 59.
27.56000, 46.
27.59000, 50.
27.62000, 34.
27.65000, 44.
27.68000, 49.
27.71000, 49.
27.74000, 38.
27.77000, 47.
27.80000, 43.
27.83000, 50.
27.86000, 55.
27.89000, 40.
27.92000, 34.
27.95000, 45.
27.98000, 53.
28.01000, 43.
28.04000, 39.
28.07000, 40.
28.10000, 57.
28.13000, 35.
28.16000, 53.
28.19000, 43.
28.22000, 35.
28.25000, 53.
28.28000, 46.
28.31000, 36.
28.34000, 45.
28.37000, 36.
28.40000, 33.
28.43000, 38.
28.46000, 37.
28.49000, 59.
28.52000, 37.
28.55000, 44.
28.58000, 45.
28.61000, 44.
28.64000, 37.
28.67000, 39.
28.70000, 42.
28.73000, 39.
28.76000, 32.
28.79000, 37.
28.82000, 38.
28.85000, 31.
28.88000, 42.
28.91000, 35.
28.94000, 43.
28.97000, 33.
29.00000, 28.
29.03000, 46.
29.06000, 47.
29.09000, 44.
29.12000, 40.
29.15000, 44.
29.18000, 27.
29.21000, 43.
29.24000, 27.
29.27000, 59.
29.30000, 27.
29.33000, 24.
29.36000, 35.
29.39000, 53.
29.42000, 49.
29.45000, 35.
29.48000, 32.
29.51000, 31.
29.54000, 42.
29.57000, 48.
29.60000, 35.
29.63000, 39.
29.66000, 27.
29.69000, 43.
29.72000, 33.
29.75000, 34.
29.78000, 41.
29.81000, 24.
29.84000, 30.
29.87000, 37.
29.90000, 30.
29.93000, 26.
29.96000, 29.
29.99000, 40.
30.02000, 41.
30.05000, 39.
30.08000, 45.
30.11000, 38.
30.14000, 39.
30.17000, 36.
30.20000, 29.
30.23000, 42.
30.26000, 28.
30.29000, 35.
30.32000, 42.
30.35000, 39.
30.38000, 36.
30.41000, 29.
30.44000, 31.
30.47000, 31.
30.50000, 34.
30.53000, 32.
30.56000, 19.
30.59000, 30.
30.62000, 31.
30.65000, 29.
30.68000, 29.
30.71000, 43.
30.74000, 33.
30.77000, 38.
30.80000, 28.
30.83000, 22.
30.86000, 34.
30.89000, 31.
30.92000, 34.
30.95000, 34.
30.98000, 25.
31.01000, 34.
31.04000, 25.
31.07000, 22.
31.10000, 37.
31.13000, 31.
31.16000, 27.
31.19000, 34.
31.22000, 27.
31.25000, 25.
31.28000, 28.
31.31000, 32.
31.34000, 24.
31.37000, 33.
31.40000, 31.
31.43000, 31.
31.46000, 23.
31.49000, 23.
31.52000, 22.
31.55000, 30.
31.58000, 25.
31.61000, 26.
31.64000, 27.
31.67000, 49.
31.70000, 28.
31.73000, 21.
31.76000, 24.
31.79000, 19.
31.82000, 35.
31.85000, 29.
31.88000, 32.
31.91000, 23.
31.94000, 26.
31.97000, 29.
32.00000, 27.
32.03000, 33.
32.06000, 31.
32.09000, 44.
32.12000, 29.
32.15000, 27.
32.18000, 35.
32.21000, 18.
32.24000, 20.
32.27000, 23.
32.30000, 28.
32.33000, 35.
32.36000, 23.
32.39000, 26.
32.42000, 35.
32.45000, 22.
32.48000, 21.
32.51000, 15.
32.54000, 22.
32.57000, 23.
32.60000, 29.
32.63000, 26.
32.66000, 25.
32.69000, 22.
32.72000, 23.
32.75000, 20.
32.78000, 28.
32.81000, 19.
32.84000, 18.
32.87000, 23.
32.90000, 25.
32.93000, 24.
32.96000, 17.
32.99000, 24.
33.02000, 24.
33.05000, 28.
33.08000, 20.
33.11000, 27.
33.14000, 29.
33.17000, 26.
33.20000, 17.
33.23000, 28.
33.26000, 22.
33.29000, 23.
33.32000, 21.
33.35000, 23.
33.38000, 25.
33.41000, 17.
33.44000, 16.
33.47000, 19.
33.50000, 31.
33.53000, 28.
33.56000, 14.
33.59000, 20.
33.62000, 18.
33.65000, 18.
33.68000, 11.
33.71000, 19.
33.74000, 12.
33.77000, 27.
33.80000, 17.
33.83000, 19.
33.86000, 19.
33.89000, 14.
33.92000, 26.
33.95000, 9.
33.98000, 12.
34.01000, 15.
34.04000, 23.
34.07000, 18.
34.10000, 17.
34.13000, 21.
34.16000, 18.
34.19000, 19.
34.22000, 15.
34.25000, 21.
34.28000, 20.
34.31000, 14.
34.34000, 16.
34.37000, 15.
34.40000, 14.
34.43000, 15.
34.46000, 14.
34.49000, 12.
34.52000, 17.
34.55000, 22.
34.58000, 14.
34.61000, 18.
34.64000, 21.
34.67000, 26.
34.70000, 22.
34.73000, 15.
34.76000, 13.
34.79000, 16.
34.82000, 14.
34.85000, 17.
34.88000, 16.
34.91000, 13.
34.94000, 12.
34.97000, 18.
35.00000, 16.
35.03000, 13.
35.06000, 11.
35.09000, 18.
35.12000, 16.
35.15000, 18.
35.18000, 12.
35.21000, 13.
35.24000, 14.
35.27000, 14.
35.30000, 22.
35.33000, 20.
35.36000, 21.
35.39000, 10.
35.42000, 14.
35.45000, 15.
35.48000, 12.
35.51000, 14.
35.54000, 16.
35.57000, 13.
35.60000, 12.
35.63000, 16.
35.66000, 14.
35.69000, 13.
35.72000, 11.
35.75000, 14.
35.78000, 20.
35.81000, 14.
35.84000, 9.
35.87000, 13.
35.90000, 12.
35.93000, 10.
35.96000, 11.
35.99000, 14.
36.02000, 14.
36.05000, 8.
36.08000, 9.
36.11000, 9.
36.14000, 12.
36.17000, 12.
36.20000, 12.
36.23000, 20.
36.26000, 18.
36.29000, 20.
36.32000, 9.
36.35000, 5.
36.38000, 24.
36.41000, 18.
36.44000, 12.
36.47000, 12.
36.50000, 4.
36.53000, 12.
36.56000, 11.
36.59000, 13.
36.62000, 6.
36.65000, 15.
36.68000, 8.
36.71000, 17.
36.74000, 15.
36.77000, 17.
36.80000, 10.
36.83000, 10.
36.86000, 11.
36.89000, 13.
36.92000, 12.
36.95000, 11.
36.98000, 8.
37.01000, 11.
37.04000, 9.
37.07000, 9.
37.10000, 19.
37.13000, 20.
37.16000, 10.
37.19000, 6.
37.22000, 11.
37.25000, 7.
37.28000, 14.
37.31000, 6.
37.34000, 16.
37.37000, 11.
37.40000, 13.
37.43000, 8.
37.46000, 10.
37.49000, 10.
37.52000, 23.
37.55000, 5.
37.58000, 15.
37.61000, 9.
37.64000, 9.
37.67000, 9.
37.70000, 8.
37.73000, 8.
37.76000, 13.
37.79000, 21.
37.82000, 10.
37.85000, 9.
37.88000, 12.
37.91000, 12.
37.94000, 13.
37.97000, 14.
38.00000, 4.
38.03000, 8.
38.06000, 10.
38.09000, 7.
38.12000, 5.
38.15000, 9.
38.18000, 9.
38.21000, 7.
38.24000, 8.
38.27000, 9.
38.30000, 6.
38.33000, 6.
38.36000, 10.
38.39000, 10.
38.42000, 7.
38.45000, 6.
38.48000, 10.
38.51000, 11.
38.54000, 7.
38.57000, 9.
38.60000, 10.
38.63000, 10.
38.66000, 6.
38.69000, 5.
38.72000, 3.
38.75000, 5.
38.78000, 5.
38.81000, 9.
38.84000, 6.
38.87000, 7.
38.90000, 6.
38.93000, 8.
38.96000, 4.
38.99000, 2.
39.02000, 12.
39.05000, 5.
39.08000, 4.
39.11000, 8.
39.14000, 8.
39.17000, 12.
39.20000, 9.
39.23000, 7.
39.26000, 6.
39.29000, 12.
39.32000, 8.
39.35000, 9.
39.38000, 1.
39.41000, 6.
39.44000, 1.
39.47000, 9.
39.50000, 11.
39.53000, 11.
39.56000, 6.
39.59000, 7.
39.62000, 9.
39.65000, 5.
39.68000, 10.
39.71000, 4.
39.74000, 6.
39.77000, 1.
39.80000, 10.
39.83000, 7.
39.86000, 7.
39.89000, 11.
39.92000, 4.
39.95000, 5.
39.98000, 2.
40.01000, 7.
40.04000, 11.
40.07000, 3.
40.10000, 3.
40.13000, 3.
40.16000, 5.
40.19000, 4.
40.22000, 6.
40.25000, 4.
40.28000, 2.
40.31000, 4.
40.34000, 4.
40.37000, 1.
40.40000, 12.
40.43000, 8.
40.46000, 0.
40.49000, 6.
40.52000, 6.
40.55000, 0.
#ENDOFDATA   :