File: sample_data/data/Ti.txt
#FORMAT      : EMSA/MAS Spectral Data File
#VERSION     : 1.0
#TITLE       : Spectrum 5
#DATE        : 25-NOV-2025
#TIME        : 13:33
#OWNER       : XGT7200
#NPOINTS     : 4096.
#NCOLUMNS    : 1.
#XUNITS      : keV
#YUNITS      : counts
#DATATYPE    : XY
#XPERCHAN    : 0.0100000
#OFFSET      : -0.400000
#SIGNALTYPE  : EDS
#CHOFFSET    : 40.0000
#LIVETIME    : 30
#REALTIME    : 35.0515
#BEAMKV      : 30.0000
#PROBECUR    : 1.00000E+006
#MAGCAM      : 100.000
#XTILTSTGE   : 0.0
#AZIMANGLE   : 0.0
#ELEVANGLE   : 45.0
#XPOSITION mm: 0.0000
#YPOSITION mm: 0.0000
#ZPOSITION mm: 0.0000
##OXINSTPT   : 4
##OXINSTSTROB: 71.21
#SPECTRUM    : Spectral Data Starts Here
-0.40000, 0.
-0.37000, 0.
-0.34000, 0.
-0.31000, 0.
-0.28000, 0.
-0.25000, 0.
-0.22000, 0.
-0.19000, 0.
-0.16000, 0.
-0.13000, 0.
-0.10000, 0.
-0.07000, 0.
-0.04000, 0.
-0.01000, 0.
0.02000, 0.
0.05000, 0.
0.08000, 0.
0.11000, 0.
0.14000, 0.
0.17000, 0.
0.20000, 0.
0.23000, 0.
0.26000, 0.
0.29000, 0.
0.32000, 0.
0.35000, 0.
0.38000, 1.
0.41000, 4.
0.44000, 9.
0.47000, 8.
0.50000, 6.
0.53000, 11.
0.56000, 4.
0.59000, 10.
0.62000, 9.
0.65000, 6.
0.68000, 5.
0.71000, 6.
0.74000, 7.
0.77000, 4.
0.80000, 8.
0.83000, 9.
0.86000, 12.
0.89000, 35.
0.92000, 59.
0.95000, 105.
0.98000, 74.
1.01000, 46.
1.04000, 30.
1.07000, 37.
1.10000, 46.
1.13000, 31.
1.16000, 15.
1.19000, 6.
1.22000, 7.
1.25000, 13.
1.28000, 4.
1.31000, 7.
1.34000, 13.
1.37000, 9.
1.40000, 11.
1.43000, 17.
1.46000, 23.
1.49000, 27.
1.52000, 26.
1.55000, 9.
1.58000, 5.
1.61000, 8.
1.64000, 4.
1.67000, 10.
1.70000, 14.
1.73000, 12.
1.76000, 14.
1.79000, 15.
1.82000, 14.
1.85000, 11.
1.88000, 11.
1.91000, 11.
1.94000, 6.
1.97000, 16.
2.00000, 10.
2.03000, 16.
2.06000, 8.
2.09000, 13.
2.12000, 14.
2.15000, 13.
2.18000, 16.
2.21000, 11.
2.24000, 13.
2.27000, 19.
2.30000, 15.
2.33000, 17.
2.36000, 15.
2.39000, 16.
2.42000, 13.
2.45000, 21.
2.48000, 23.
2.51000, 25.
2.54000, 63.
2.57000, 199.
2.60000, 692.
2.63000, 1928.
2.66000, 4171.
2.69000, 5981.
2.72000, 5726.
2.75000, 4143.
2.78000, 2725.
2.81000, 2512.
2.84000, 2387.
2.87000, 1802.
2.90000, 984.
2.93000, 303.
2.96000, 91.
2.99000, 28.
3.02000, 18.
3.05000, 11.
3.08000, 18.
3.11000, 18.
3.14000, 19.
3.17000, 26.
3.20000, 41.
3.23000, 27.
3.26000, 14.
3.29000, 22.
3.32000, 20.
3.35000, 18.
3.38000, 12.
3.41000, 17.
3.44000, 10.
3.47000, 15.
3.50000, 18.
3.53000, 15.
3.56000, 17.
3.59000, 27.
3.62000, 37.
3.65000, 52.
3.68000, 50.
3.71000, 54.
3.74000, 30.
3.77000, 29.
3.80000, 18.
3.83000, 18.
3.86000, 30.
3.89000, 30.
3.92000, 20.
3.95000, 22.
3.98000, 26.
4.01000, 20.
4.04000, 23.
4.07000, 20.
4.10000, 20.
4.13000, 18.
4.16000, 16.
4.19000, 25.
4.22000, 37.
4.25000, 43.
4.28000, 87.
4.31000, 146.
4.34000, 325.
4.37000, 872.
4.40000, 2760.
4.43000, 7192.
4.46000, 14324.
4.49000, 20990.
4.52000, 22831.
4.55000, 18325.
4.58000, 10660.
4.61000, 4596.
4.64000, 1548.
4.67000, 428.
4.70000, 134.
4.73000, 139.
4.76000, 174.
4.79000, 267.
4.82000, 520.
4.85000, 1167.
4.88000, 1972.
4.91000, 2920.
4.94000, 3081.
4.97000, 2509.
5.00000, 1532.
5.03000, 666.
5.06000, 245.
5.09000, 82.
5.12000, 16.
5.15000, 9.
5.18000, 1.
5.21000, 5.
5.24000, 8.
5.27000, 4.
5.30000, 7.
5.33000, 14.
5.36000, 8.
5.39000, 12.
5.42000, 13.
5.45000, 12.
5.48000, 8.
5.51000, 9.
5.54000, 9.
5.57000, 5.
5.60000, 6.
5.63000, 6.
5.66000, 5.
5.69000, 2.
5.72000, 4.
5.75000, 0.
5.78000, 7.
5.81000, 3.
5.84000, 4.
5.87000, 6.
5.90000, 7.
5.93000, 8.
5.96000, 7.
5.99000, 10.
6.02000, 2.
6.05000, 2.
6.08000, 1.
6.11000, 1.
6.14000, 2.
6.17000, 6.
6.20000, 5.
6.23000, 3.
6.26000, 2.
6.29000, 9.
6.32000, 12.
6.35000, 20.
6.38000, 22.
6.41000, 33.
6.44000, 23.
6.47000, 15.
6.50000, 10.
6.53000, 6.
6.56000, 3.
6.59000, 9.
6.62000, 3.
6.65000, 4.
6.68000, 8.
6.71000, 5.
6.74000, 5.
6.77000, 5.
6.80000, 14.
6.83000, 12.
6.86000, 5.
6.89000, 13.
6.92000, 13.
6.95000, 14.
6.98000, 9.
7.01000, 9.
7.04000, 11.
7.07000, 12.
7.10000, 27.
7.13000, 17.
7.16000, 42.
7.19000, 32.
7.22000, 35.
7.25000, 43.
7.28000, 38.
7.31000, 29.
7.34000, 28.
7.37000, 23.
7.40000, 12.
7.43000, 6.
7.46000, 5.
7.49000, 9.
7.52000, 12.
7.55000, 7.
7.58000, 11.
7.61000, 18.
7.64000, 13.
7.67000, 11.
7.70000, 14.
7.73000, 16.
7.76000, 10.
7.79000, 10.
7.82000, 4.
7.85000, 7.
7.88000, 12.
7.91000, 6.
7.94000, 7.
7.97000, 7.
8.00000, 5.
8.03000, 7.
8.06000, 10.
8.09000, 6.
8.12000, 16.
8.15000, 14.
8.18000, 7.
8.21000, 8.
8.24000, 14.
8.27000, 16.
8.30000, 10.
8.33000, 18.
8.36000, 16.
8.39000, 14.
8.42000, 21.
8.45000, 7.
8.48000, 12.
8.51000, 12.
8.54000, 10.
8.57000, 7.
8.60000, 10.
8.63000, 12.
8.66000, 5.
8.69000, 10.
8.72000, 2.
8.75000, 7.
8.78000, 9.
8.81000, 11.
8.84000, 8.
8.87000, 9.
8.90000, 21.
8.93000, 32.
8.96000, 45.
8.99000, 74.
9.02000, 71.
9.05000, 74.
9.08000, 75.
9.11000, 47.
9.14000, 20.
9.17000, 26.
9.20000, 23.
9.23000, 19.
9.26000, 20.
9.29000, 14.
9.32000, 22.
9.35000, 27.
9.38000, 37.
9.41000, 29.
9.44000, 47.
9.47000, 26.
9.50000, 32.
9.53000, 19.
9.56000, 11.
9.59000, 9.
9.62000, 10.
9.65000, 11.
9.68000, 19.
9.71000, 8.
9.74000, 10.
9.77000, 14.
9.80000, 12.
9.83000, 12.
9.86000, 15.
9.89000, 7.
9.92000, 11.
9.95000, 15.
9.98000, 11.
10.01000, 8.
10.04000, 12.
10.07000, 12.
10.10000, 11.
10.13000, 9.
10.16000, 10.
10.19000, 11.
10.22000, 4.
10.25000, 8.
10.28000, 10.
10.31000, 11.
10.34000, 3.
10.37000, 11.
10.40000, 7.
10.43000, 8.
10.46000, 15.
10.49000, 10.
10.52000, 8.
10.55000, 13.
10.58000, 8.
10.61000, 10.
10.64000, 11.
10.67000, 14.
10.70000, 10.
10.73000, 9.
10.76000, 9.
10.79000, 15.
10.82000, 12.
10.85000, 15.
10.88000, 10.
10.91000, 11.
10.94000, 12.
10.97000, 13.
11.00000, 13.
11.03000, 8.
11.06000, 14.
11.09000, 13.
11.12000, 8.
11.15000, 6.
11.18000, 7.
11.21000, 25.
11.24000, 15.
11.27000, 11.
11.30000, 10.
11.33000, 17.
11.36000, 7.
11.39000, 15.
11.42000, 11.
11.45000, 17.
11.48000, 15.
11.51000, 13.
11.54000, 12.
11.57000, 16.
11.60000, 15.
11.63000, 14.
11.66000, 20.
11.69000, 14.
11.72000, 17.
11.75000, 14.
11.78000, 15.
11.81000, 9.
11.84000, 9.
11.87000, 18.
11.90000, 13.
11.93000, 9.
11.96000, 11.
11.99000, 7.
12.02000, 17.
12.05000, 10.
12.08000, 12.
12.11000, 11.
12.14000, 9.
12.17000, 2.
12.20000, 10.
12.23000, 7.
12.26000, 6.
12.29000, 8.
12.32000, 7.
12.35000, 10.
12.38000, 7.
12.41000, 10.
12.44000, 12.
12.47000, 6.
12.50000, 8.
12.53000, 12.
12.56000, 10.
12.59000, 13.
12.62000, 10.
12.65000, 13.
12.68000, 22.
12.71000, 9.
12.74000, 7.
12.77000, 7.
12.80000, 8.
12.83000, 8.
12.86000, 8.
12.89000, 10.
12.92000, 7.
12.95000, 15.
12.98000, 10.
13.01000, 13.
13.04000, 23.
13.07000, 13.
13.10000, 13.
13.13000, 12.
13.16000, 7.
13.19000, 15.
13.22000, 7.
13.25000, 8.
13.28000, 10.
13.31000, 16.
13.34000, 11.
13.37000, 14.
13.40000, 9.
13.43000, 5.
13.46000, 14.
13.49000, 9.
13.52000, 9.
13.55000, 7.
13.58000, 10.
13.61000, 14.
13.64000, 9.
13.67000, 12.
13.70000, 6.
13.73000, 15.
13.76000, 18.
13.79000, 17.
13.82000, 9.
13.85000, 17.
13.88000, 13.
13.91000, 14.
13.94000, 12.
13.97000, 7.
14.00000, 12.
14.03000, 9.
14.06000, 14.
14.09000, 8.
14.12000, 5.
14.15000, 10.
14.18000, 12.
14.21000, 8.
14.24000, 11.
14.27000, 10.
14.30000, 7.
14.33000, 3.
14.36000, 5.
14.39000, 7.
14.42000, 6.
14.45000, 7.
14.48000, 8.
14.51000, 6.
14.54000, 6.
14.57000, 10.
14.60000, 4.
14.63000, 12.
14.66000, 8.
14.69000, 5.
14.72000, 5.
14.75000, 12.
14.78000, 8.
14.81000, 12.
14.84000, 8.
14.87000, 5.
14.90000, 8.
14.93000, 5.
14.96000, 7.
14.99000, 7.
15.02000, 13.
15.05000, 9.
15.08000, 15.
15.11000, 7.
15.14000, 14.
15.17000, 6.
15.20000, 11.
15.23000, 8.
15.26000, 13.
15.29000, 7.
15.32000, 9.
15.35000, 14.
15.38000, 10.
15.41000, 10.
15.44000, 9.
15.47000, 8.
15.50000, 9.
15.53000, 7.
15.56000, 9.
15.59000, 11.
15.62000, 9.
15.65000, 10.
15.68000, 15.
15.71000, 12.
15.74000, 12.
15.77000, 8.
15.80000, 4.
15.83000, 3.
15.86000, 7.
15.89000, 14.
15.92000, 5.
15.95000, 9.
15.98000, 5.
16.01000, 7.
16.04000, 7.
16.07000, 11.
16.10000, 9.
16.13000, 11.
16.16000, 6.
16.19000, 10.
16.22000, 13.
16.25000, 8.
16.28000, 14.
16.31000, 10.
16.34000, 4.
16.37000, 10.
16.40000, 10.
16.43000, 4.
16.46000, 8.
16.49000, 6.
16.52000, 4.
16.55000, 8.
16.58000, 10.
16.61000, 8.
16.64000, 12.
16.67000, 7.
16.70000, 8.
16.73000, 5.
16.76000, 4.
16.79000, 7.
16.82000, 11.
16.85000, 10.
16.88000, 9.
16.91000, 6.
16.94000, 7.
16.97000, 5.
17.00000, 4.
17.03000, 6.
17.06000, 7.
17.09000, 10.
17.12000, 7.
17.15000, 7.
17.18000, 4.
17.21000, 7.
17.24000, 11.
17.27000, 12.
17.30000, 11.
17.33000, 6.
17.36000, 4.
17.39000, 7.
17.42000, 4.
17.45000, 5.
17.48000, 11.
17.51000, 10.
17.54000, 10.
17.57000, 8.
17.60000, 5.
17.63000, 6.
17.66000, 4.
17.69000, 4.
17.72000, 9.
17.75000, 7.
17.78000, 5.
17.81000, 7.
17.84000, 7.
17.87000, 10.
17.90000, 9.
17.93000, 10.
17.96000, 6.
17.99000, 10.
18.02000, 7.
18.05000, 4.
18.08000, 2.
18.11000, 7.
18.14000, 4.
18.17000, 8.
18.20000, 7.
18.23000, 11.
18.26000, 8.
18.29000, 6.
18.32000, 10.
18.35000, 7.
18.38000, 10.
18.41000, 10.
18.44000, 8.
18.47000, 12.
18.50000, 9.
18.53000, 9.
18.56000, 9.
18.59000, 7.
18.62000, 5.
18.65000, 16.
18.68000, 10.
18.71000, 14.
18.74000, 7.
18.77000, 11.
18.80000, 12.
18.83000, 12.
18.86000, 4.
18.89000, 10.
18.92000, 13.
18.95000, 11.
18.98000, 6.
19.01000, 8.
19.04000, 10.
19.07000, 10.
19.10000, 10.
19.13000, 7.
19.16000, 6.
19.19000, 5.
19.22000, 8.
19.25000, 7.
19.28000, 9.
19.31000, 7.
19.34000, 6.
19.37000, 5.
19.40000, 5.
19.43000, 6.
19.46000, 8.
19.49000, 8.
19.52000, 7.
19.55000, 5.
19.58000, 6.
19.61000, 3.
19.64000, 7.
19.67000, 7.
19.70000, 3.
19.73000, 5.
19.76000, 4.
19.79000, 8.
19.82000, 6.
19.85000, 2.
19.88000, 5.
19.91000, 8.
19.94000, 7.
19.97000, 8.
20.00000, 16.
20.03000, 17.
20.06000, 17.
20.09000, 13.
20.12000, 21.
20.15000, 25.
20.18000, 17.
20.21000, 22.
20.24000, 16.
20.27000, 14.
20.30000, 16.
20.33000, 9.
20.36000, 6.
20.39000, 6.
20.42000, 5.
20.45000, 5.
20.48000, 7.
20.51000, 4.
20.54000, 4.
20.57000, 2.
20.60000, 3.
20.63000, 2.
20.66000, 4.
20.69000, 8.
20.72000, 4.
20.75000, 5.
20.78000, 5.
20.81000, 5.
20.84000, 6.
20.87000, 7.
20.90000, 1.
20.93000, 6.
20.96000, 4.
20.99000, 3.
21.02000, 4.
21.05000, 6.
21.08000, 7.
21.11000, 6.
21.14000, 2.
21.17000, 8.
21.20000, 3.
21.23000, 6.
21.26000, 7.
21.29000, 2.
21.32000, 4.
21.35000, 2.
21.38000, 3.
21.41000, 7.
21.44000, 5.
21.47000, 5.
21.50000, 7.
21.53000, 6.
21.56000, 1.
21.59000, 1.
21.62000, 1.
21.65000, 8.
21.68000, 4.
21.71000, 2.
21.74000, 1.
21.77000, 2.
21.80000, 4.
21.83000, 6.
21.86000, 4.
21.89000, 3.
21.92000, 3.
21.95000, 5.
21.98000, 2.
22.01000, 1.
22.04000, 3.
22.07000, 4.
22.10000, 2.
22.13000, 2.
22.16000, 5.
22.19000, 2.
22.22000, 3.
22.25000, 4.
22.28000, 3.
22.31000, 0.
22.34000, 2.
22.37000, 1.
22.40000, 5.
22.43000, 2.
22.46000, 1.
22.49000, 5.
22.52000, 1.
22.55000, 4.
22.58000, 7.
22.61000, 5.
22.64000, 4.
22.67000, 3.
22.70000, 1.
22.73000, 5.
22.76000, 5.
22.79000, 7.
22.82000, 8.
22.85000, 4.
22.88000, 5.
22.91000, 3.
22.94000, 3.
22.97000, 1.
23.00000, 2.
23.03000, 3.
23.06000, 2.
23.09000, 4.
23.12000, 1.
23.15000, 2.
23.18000, 1.
23.21000, 1.
23.24000, 0.
23.27000, 2.
23.30000, 2.
23.33000, 0.
23.36000, 4.
23.39000, 2.
23.42000, 2.
23.45000, 2.
23.48000, 1.
23.51000, 2.
23.54000, 1.
23.57000, 3.
23.60000, 1.
23.63000, 2.
23.66000, 1.
23.69000, 2.
23.72000, 1.
23.75000, 1.
23.78000, 1.
23.81000, 1.
23.84000, 1.
23.87000, 0.
23.90000, 2.
23.93000, 1.
23.96000, 2.
23.99000, 3.
24.02000, 1.
24.05000, 2.
24.08000, 2.
24.11000, 1.
24.14000, 0.
24.17000, 0.
24.20000, 3.
24.23000, 2.
24.26000, 3.
24.29000, 1.
24.32000, 4.
24.35000, 3.
24.38000, 4.
24.41000, 2.
24.44000, 0.
24.47000, 0.
24.50000, 2.
24.53000, 1.
24.56000, 3.
24.59000, 2.
24.62000, 2.
24.65000, 5.
24.68000, 0.
24.71000, 1.
24.74000, 2.
24.77000, 1.
24.80000, 4.
24.83000, 2.
24.86000, 3.
24.89000, 1.
24.92000, 1.
24.95000, 0.
24.98000, 1.
25.01000, 1.
25.04000, 0.
25.07000, 1.
25.10000, 0.
25.13000, 1.
25.16000, 2.
25.19000, 0.
25.22000, 4.
25.25000, 3.
25.28000, 0.
25.31000, 1.
25.34000, 3.
25.37000, 2.
25.40000, 2.
25.43000, 1.
25.46000, 3.
25.49000, 0.
25.52000, 0.
25.55000, 2.
25.58000, 1.
25.61000, 0.
25.64000, 0.
25.67000, 0.
25.70000, 0.
25.73000, 1.
25.76000, 1.
25.79000, 0.
25.82000, 1.
25.85000, 0.
25.88000, 0.
25.91000, 0.
25.94000, 0.
25.97000, 1.
26.00000, 0.
26.03000, 1.
26.06000, 1.
26.09000, 0.
26.12000, 0.
26.15000, 1.
26.18000, 0.
26.21000, 0.
26.24000, 1.
26.27000, 0.
26.30000, 0.
26.33000, 1.
26.36000, 0.
26.39000, 0.
26.42000, 0.
26.45000, 0.
26.48000, 2.
26.51000, 0.
26.54000, 1.
26.57000, 0.
26.60000, 0.
26.63000, 0.
26.66000, 0.
26.69000, 0.
26.72000, 0.
26.75000, 3.
26.78000, 1.
26.81000, 2.
26.84000, 0.
26.87000, 1.
26.90000, 1.
26.93000, 0.
26.96000, 0.
26.99000, 0.
27.02000, 0.
27.05000, 0.
27.08000, 1.
27.11000, 0.
27.14000, 0.
27.17000, 1.
27.20000, 0.
27.23000, 0.
27.26000, 1.
27.29000, 0.
27.32000, 1.
27.35000, 0.
27.38000, 0.
27.41000, 0.
27.44000, 1.
27.47000, 0.
27.50000, 0.
27.53000, 1.
27.56000, 2.
27.59000, 0.
27.62000, 1.
27.65000, 1.
27.68000, 0.
27.71000, 0.
27.74000, 0.
27.77000, 0.
27.80000, 0.
27.83000, 1.
27.86000, 0.
27.89000, 0.
27.92000, 0.
27.95000, 1.
27.98000, 0.
28.01000, 0.
28.04000, 0.
28.07000, 1.
28.10000, 0.
28.13000, 0.
28.16000, 0.
28.19000, 0.
28.22000, 0.
28.25000, 0.
28.28000, 1.
28.31000, 0.
28.34000, 0.
28.37000, 0.
28.40000, 0.
28.43000, 0.
28.46000, 0.
28.49000, 0.
28.52000, 0.
28.55000, 0.
28.58000, 0.
28.61000, 0.
28.64000, 1.
28.67000, 0.
28.70000, 0.
28.73000, 1.
28.76000, 0.
28.79000, 0.
28.82000, 0.
28.85000, 0.
28.88000, 0.
28.91000, 0.
28.94000, 0.
28.97000, 0.
29.00000, 0.
29.03000, 1.
29.06000, 0.
29.09000, 0.
29.12000, 0.
29.15000, 0.
29.18000, 0.
29.21000, 0.
29.24000, 0.
29.27000, 0.
29.30000, 0.
29.33000, 0.
29.36000, 0.
29.39000, 0.
29.42000, 0.
29.45000, 2.
29.48000, 0.
29.51000, 0.
29.54000, 1.
29.57000, 0.
29.60000, 0.
29.63000, 0.
29.66000, 0.
29.69000, 0.
29.72000, 0.
29.75000, 0.
29.78000, 0.
29.81000, 0.
29.84000, 0.
29.87000, 0.
29.90000, 0.
29.93000, 1.
29.96000, 0.
29.99000, 0.
30.02000, 0.
30.05000, 0.
30.08000, 0.
30.11000, 0.
30.14000, 0.
30.17000, 0.
30.20000, 0.
30.23000, 0.
30.26000, 0.
30.29000, 0.
30.32000, 0.
30.35000, 0.
30.38000, 0.
30.41000, 0.
30.44000, 0.
30.47000, 0.
30.50000, 0.
30.53000, 0.
30.56000, 0.
30.59000, 0.
30.62000, 0.
30.65000, 0.
30.68000, 0.
30.71000, 0.
30.74000, 0.
30.77000, 0.
30.80000, 0.
30.83000, 0.
30.86000, 0.
30.89000, 0.
30.92000, 0.
30.95000, 0.
30.98000, 0.
31.01000, 0.
31.04000, 0.
31.07000, 0.
31.10000, 0.
31.13000, 0.
31.16000, 0.
31.19000, 0.
31.22000, 0.
31.25000, 0.
31.28000, 0.
31.31000, 0.
31.34000, 0.
31.37000, 0.
31.40000, 0.
31.43000, 0.
31.46000, 0.
31.49000, 0.
31.52000, 0.
31.55000, 0.
31.58000, 0.
31.61000, 0.
31.64000, 0.
31.67000, 0.
31.70000, 0.
31.73000, 0.
31.76000, 0.
31.79000, 0.
31.82000, 0.
31.85000, 0.
31.88000, 0.
31.91000, 0.
31.94000, 0.
31.97000, 0.
32.00000, 0.
32.03000, 0.
32.06000, 0.
32.09000, 0.
32.12000, 0.
32.15000, 0.
32.18000, 0.
32.21000, 0.
32.24000, 0.
32.27000, 0.
32.30000, 0.
32.33000, 0.
32.36000, 0.
32.39000, 0.
32.42000, 0.
32.45000, 0.
32.48000, 0.
32.51000, 0.
32.54000, 0.
32.57000, 0.
32.60000, 0.
32.63000, 0.
32.66000, 0.
32.69000, 0.
32.72000, 0.
32.75000, 0.
32.78000, 0.
32.81000, 0.
32.84000, 0.
32.87000, 0.
32.90000, 0.
32.93000, 0.
32.96000, 0.
32.99000, 0.
33.02000, 0.
33.05000, 0.
33.08000, 0.
33.11000, 0.
33.14000, 0.
33.17000, 0.
33.20000, 0.
33.23000, 0.
33.26000, 0.
33.29000, 0.
33.32000, 0.
33.35000, 0.
33.38000, 0.
33.41000, 0.
33.44000, 0.
33.47000, 0.
33.50000, 0.
33.53000, 0.
33.56000, 0.
33.59000, 0.
33.62000, 0.
33.65000, 0.
33.68000, 0.
33.71000, 0.
33.74000, 0.
33.77000, 0.
33.80000, 0.
33.83000, 0.
33.86000, 0.
33.89000, 0.
33.92000, 0.
33.95000, 0.
33.98000, 0.
34.01000, 0.
34.04000, 0.
34.07000, 0.
34.10000, 0.
34.13000, 0.
34.16000, 0.
34.19000, 0.
34.22000, 0.
34.25000, 0.
34.28000, 0.
34.31000, 0.
34.34000, 0.
34.37000, 0.
34.40000, 0.
34.43000, 0.
34.46000, 0.
34.49000, 0.
34.52000, 0.
34.55000, 0.
34.58000, 0.
34.61000, 0.
34.64000, 0.
34.67000, 0.
34.70000, 0.
34.73000, 0.
34.76000, 0.
34.79000, 0.
34.82000, 0.
34.85000, 0.
34.88000, 0.
34.91000, 0.
34.94000, 0.
34.97000, 0.
35.00000, 0.
35.03000, 0.
35.06000, 0.
35.09000, 0.
35.12000, 0.
35.15000, 0.
35.18000, 0.
35.21000, 0.
35.24000, 0.
35.27000, 0.
35.30000, 0.
35.33000, 0.
35.36000, 0.
35.39000, 0.
35.42000, 0.
35.45000, 0.
35.48000, 0.
35.51000, 0.
35.54000, 0.
35.57000, 0.
35.60000, 0.
35.63000, 0.
35.66000, 0.
35.69000, 0.
35.72000, 0.
35.75000, 0.
35.78000, 0.
35.81000, 0.
35.84000, 0.
35.87000, 0.
35.90000, 0.
35.93000, 0.
35.96000, 0.
35.99000, 0.
36.02000, 0.
36.05000, 0.
36.08000, 0.
36.11000, 0.
36.14000, 0.
36.17000, 0.
36.20000, 0.
36.23000, 0.
36.26000, 0.
36.29000, 0.
36.32000, 0.
36.35000, 0.
36.38000, 0.
36.41000, 0.
36.44000, 0.
36.47000, 0.
36.50000, 0.
36.53000, 0.
36.56000, 0.
36.59000, 0.
36.62000, 0.
36.65000, 0.
36.68000, 0.
36.71000, 0.
36.74000, 0.
36.77000, 0.
36.80000, 0.
36.83000, 0.
36.86000, 0.
36.89000, 0.
36.92000, 0.
36.95000, 0.
36.98000, 0.
37.01000, 0.
37.04000, 0.
37.07000, 0.
37.10000, 0.
37.13000, 0.
37.16000, 0.
37.19000, 0.
37.22000, 0.
37.25000, 0.
37.28000, 0.
37.31000, 0.
37.34000, 0.
37.37000, 0.
37.40000, 0.
37.43000, 0.
37.46000, 0.
37.49000, 0.
37.52000, 0.
37.55000, 0.
37.58000, 0.
37.61000, 0.
37.64000, 0.
37.67000, 0.
37.70000, 0.
37.73000, 0.
37.76000, 0.
37.79000, 0.
37.82000, 0.
37.85000, 0.
37.88000, 0.
37.91000, 0.
37.94000, 0.
37.97000, 0.
38.00000, 0.
38.03000, 0.
38.06000, 0.
38.09000, 0.
38.12000, 0.
38.15000, 0.
38.18000, 0.
38.21000, 0.
38.24000, 0.
38.27000, 0.
38.30000, 0.
38.33000, 0.
38.36000, 0.
38.39000, 0.
38.42000, 0.
38.45000, 0.
38.48000, 0.
38.51000, 0.
38.54000, 0.
38.57000, 0.
38.60000, 0.
38.63000, 0.
38.66000, 0.
38.69000, 0.
38.72000, 0.
38.75000, 0.
38.78000, 0.
38.81000, 0.
38.84000, 0.
38.87000, 0.
38.90000, 0.
38.93000, 0.
38.96000, 0.
38.99000, 0.
39.02000, 0.
39.05000, 0.
39.08000, 0.
39.11000, 0.
39.14000, 0.
39.17000, 0.
39.20000, 0.
39.23000, 0.
39.26000, 0.
39.29000, 0.
39.32000, 0.
39.35000, 0.
39.38000, 0.
39.41000, 0.
39.44000, 0.
39.47000, 0.
39.50000, 0.
39.53000, 0.
39.56000, 0.
39.59000, 0.
39.62000, 0.
39.65000, 0.
39.68000, 0.
39.71000, 0.
39.74000, 0.
39.77000, 0.
39.80000, 0.
39.83000, 0.
39.86000, 0.
39.89000, 0.
39.92000, 0.
39.95000, 0.
39.98000, 0.
40.01000, 0.
40.04000, 0.
40.07000, 0.
40.10000, 0.
40.13000, 0.
40.16000, 0.
40.19000, 0.
40.22000, 0.
40.25000, 0.
40.28000, 0.
40.31000, 0.
40.34000, 0.
40.37000, 0.
40.40000, 0.
40.43000, 0.
40.46000, 0.
40.49000, 0.
40.52000, 0.
40.55000, 0.
#ENDOFDATA   :