File: sample_data/data/Spectrum value from standard/stds 2/Spectrum 24.txt
#FORMAT      : EMSA/MAS Spectral Data File
#VERSION     : 1.0
#TITLE       : Spectrum 24
#DATE        : 21-AUG-2025
#TIME        : 15:28
#OWNER       : XGT7200
#NPOINTS     : 4096.
#NCOLUMNS    : 1.
#XUNITS      : keV
#YUNITS      : counts
#DATATYPE    : XY
#XPERCHAN    : 0.0100000
#OFFSET      : -0.400000
#SIGNALTYPE  : EDS
#CHOFFSET    : 40.0000
#LIVETIME    : 30
#REALTIME    : 39.5983
#BEAMKV      : 50.0000
#PROBECUR    : 683000.
#MAGCAM      : 100.000
#XTILTSTGE   : 0.0
#AZIMANGLE   : 0.0
#ELEVANGLE   : 45.0
#XPOSITION mm: 0.0000
#YPOSITION mm: 0.0000
#ZPOSITION mm: 0.0000
##OXINSTPT   : 4
##OXINSTSTROB: 71.84
#SPECTRUM    : Spectral Data Starts Here
-0.40000, 0.
-0.37000, 0.
-0.34000, 0.
-0.31000, 0.
-0.28000, 0.
-0.25000, 0.
-0.22000, 0.
-0.19000, 0.
-0.16000, 0.
-0.13000, 0.
-0.10000, 0.
-0.07000, 0.
-0.04000, 0.
-0.01000, 0.
0.02000, 0.
0.05000, 0.
0.08000, 0.
0.11000, 0.
0.14000, 0.
0.17000, 0.
0.20000, 0.
0.23000, 0.
0.26000, 0.
0.29000, 0.
0.32000, 1.
0.35000, 3.
0.38000, 19.
0.41000, 31.
0.44000, 35.
0.47000, 50.
0.50000, 41.
0.53000, 50.
0.56000, 47.
0.59000, 47.
0.62000, 38.
0.65000, 39.
0.68000, 40.
0.71000, 37.
0.74000, 35.
0.77000, 32.
0.80000, 40.
0.83000, 31.
0.86000, 40.
0.89000, 40.
0.92000, 32.
0.95000, 53.
0.98000, 35.
1.01000, 46.
1.04000, 39.
1.07000, 49.
1.10000, 41.
1.13000, 40.
1.16000, 32.
1.19000, 48.
1.22000, 75.
1.25000, 87.
1.28000, 82.
1.31000, 67.
1.34000, 60.
1.37000, 41.
1.40000, 116.
1.43000, 307.
1.46000, 663.
1.49000, 881.
1.52000, 725.
1.55000, 400.
1.58000, 168.
1.61000, 122.
1.64000, 260.
1.67000, 1067.
1.70000, 3108.
1.73000, 5280.
1.76000, 5336.
1.79000, 3387.
1.82000, 1346.
1.85000, 499.
1.88000, 226.
1.91000, 86.
1.94000, 71.
1.97000, 94.
2.00000, 98.
2.03000, 97.
2.06000, 68.
2.09000, 45.
2.12000, 43.
2.15000, 36.
2.18000, 32.
2.21000, 37.
2.24000, 44.
2.27000, 68.
2.30000, 54.
2.33000, 66.
2.36000, 47.
2.39000, 61.
2.42000, 29.
2.45000, 33.
2.48000, 33.
2.51000, 32.
2.54000, 32.
2.57000, 55.
2.60000, 104.
2.63000, 234.
2.66000, 404.
2.69000, 537.
2.72000, 486.
2.75000, 369.
2.78000, 273.
2.81000, 303.
2.84000, 278.
2.87000, 256.
2.90000, 178.
2.93000, 117.
2.96000, 92.
2.99000, 58.
3.02000, 46.
3.05000, 51.
3.08000, 27.
3.11000, 25.
3.14000, 35.
3.17000, 36.
3.20000, 73.
3.23000, 184.
3.26000, 396.
3.29000, 710.
3.32000, 735.
3.35000, 653.
3.38000, 376.
3.41000, 159.
3.44000, 71.
3.47000, 46.
3.50000, 73.
3.53000, 126.
3.56000, 191.
3.59000, 352.
3.62000, 765.
3.65000, 1331.
3.68000, 1889.
3.71000, 1744.
3.74000, 1248.
3.77000, 650.
3.80000, 249.
3.83000, 95.
3.86000, 40.
3.89000, 42.
3.92000, 78.
3.95000, 163.
3.98000, 225.
4.01000, 301.
4.04000, 275.
4.07000, 215.
4.10000, 109.
4.13000, 57.
4.16000, 30.
4.19000, 18.
4.22000, 24.
4.25000, 40.
4.28000, 41.
4.31000, 35.
4.34000, 32.
4.37000, 52.
4.40000, 110.
4.43000, 162.
4.46000, 329.
4.49000, 470.
4.52000, 442.
4.55000, 394.
4.58000, 269.
4.61000, 166.
4.64000, 126.
4.67000, 94.
4.70000, 92.
4.73000, 83.
4.76000, 63.
4.79000, 55.
4.82000, 83.
4.85000, 103.
4.88000, 106.
4.91000, 122.
4.94000, 148.
4.97000, 133.
5.00000, 86.
5.03000, 67.
5.06000, 58.
5.09000, 36.
5.12000, 53.
5.15000, 51.
5.18000, 54.
5.21000, 61.
5.24000, 58.
5.27000, 63.
5.30000, 61.
5.33000, 55.
5.36000, 69.
5.39000, 87.
5.42000, 81.
5.45000, 77.
5.48000, 73.
5.51000, 58.
5.54000, 59.
5.57000, 57.
5.60000, 48.
5.63000, 34.
5.66000, 43.
5.69000, 56.
5.72000, 52.
5.75000, 70.
5.78000, 100.
5.81000, 153.
5.84000, 201.
5.87000, 294.
5.90000, 322.
5.93000, 283.
5.96000, 233.
5.99000, 140.
6.02000, 91.
6.05000, 68.
6.08000, 84.
6.11000, 89.
6.14000, 116.
6.17000, 131.
6.20000, 229.
6.23000, 527.
6.26000, 1391.
6.29000, 3634.
6.32000, 7441.
6.35000, 12351.
6.38000, 16399.
6.41000, 16878.
6.44000, 13868.
6.47000, 8892.
6.50000, 4688.
6.53000, 2002.
6.56000, 613.
6.59000, 244.
6.62000, 126.
6.65000, 115.
6.68000, 119.
6.71000, 99.
6.74000, 97.
6.77000, 101.
6.80000, 114.
6.83000, 141.
6.86000, 180.
6.89000, 232.
6.92000, 494.
6.95000, 878.
6.98000, 1537.
7.01000, 2237.
7.04000, 2712.
7.07000, 2681.
7.10000, 2144.
7.13000, 1364.
7.16000, 743.
7.19000, 361.
7.22000, 185.
7.25000, 80.
7.28000, 87.
7.31000, 64.
7.34000, 78.
7.37000, 59.
7.40000, 80.
7.43000, 93.
7.46000, 75.
7.49000, 73.
7.52000, 76.
7.55000, 89.
7.58000, 73.
7.61000, 64.
7.64000, 65.
7.67000, 78.
7.70000, 65.
7.73000, 74.
7.76000, 70.
7.79000, 98.
7.82000, 90.
7.85000, 96.
7.88000, 93.
7.91000, 103.
7.94000, 110.
7.97000, 96.
8.00000, 103.
8.03000, 140.
8.06000, 122.
8.09000, 144.
8.12000, 176.
8.15000, 114.
8.18000, 116.
8.21000, 103.
8.24000, 114.
8.27000, 104.
8.30000, 98.
8.33000, 113.
8.36000, 86.
8.39000, 98.
8.42000, 81.
8.45000, 84.
8.48000, 110.
8.51000, 134.
8.54000, 143.
8.57000, 209.
8.60000, 229.
8.63000, 237.
8.66000, 215.
8.69000, 181.
8.72000, 142.
8.75000, 124.
8.78000, 108.
8.81000, 106.
8.84000, 105.
8.87000, 100.
8.90000, 103.
8.93000, 102.
8.96000, 135.
8.99000, 103.
9.02000, 113.
9.05000, 103.
9.08000, 90.
9.11000, 130.
9.14000, 112.
9.17000, 127.
9.20000, 137.
9.23000, 124.
9.26000, 140.
9.29000, 130.
9.32000, 115.
9.35000, 110.
9.38000, 130.
9.41000, 101.
9.44000, 116.
9.47000, 99.
9.50000, 123.
9.53000, 124.
9.56000, 118.
9.59000, 118.
9.62000, 128.
9.65000, 150.
9.68000, 117.
9.71000, 131.
9.74000, 115.
9.77000, 97.
9.80000, 119.
9.83000, 107.
9.86000, 120.
9.89000, 109.
9.92000, 100.
9.95000, 114.
9.98000, 111.
10.01000, 121.
10.04000, 126.
10.07000, 113.
10.10000, 122.
10.13000, 123.
10.16000, 109.
10.19000, 129.
10.22000, 123.
10.25000, 129.
10.28000, 130.
10.31000, 118.
10.34000, 127.
10.37000, 119.
10.40000, 124.
10.43000, 151.
10.46000, 133.
10.49000, 165.
10.52000, 180.
10.55000, 139.
10.58000, 151.
10.61000, 155.
10.64000, 129.
10.67000, 119.
10.70000, 118.
10.73000, 112.
10.76000, 127.
10.79000, 125.
10.82000, 106.
10.85000, 124.
10.88000, 136.
10.91000, 115.
10.94000, 131.
10.97000, 126.
11.00000, 117.
11.03000, 128.
11.06000, 111.
11.09000, 125.
11.12000, 112.
11.15000, 142.
11.18000, 139.
11.21000, 119.
11.24000, 112.
11.27000, 127.
11.30000, 116.
11.33000, 124.
11.36000, 130.
11.39000, 138.
11.42000, 144.
11.45000, 120.
11.48000, 126.
11.51000, 128.
11.54000, 132.
11.57000, 131.
11.60000, 143.
11.63000, 136.
11.66000, 133.
11.69000, 128.
11.72000, 133.
11.75000, 145.
11.78000, 144.
11.81000, 149.
11.84000, 149.
11.87000, 124.
11.90000, 136.
11.93000, 138.
11.96000, 136.
11.99000, 124.
12.02000, 129.
12.05000, 127.
12.08000, 142.
12.11000, 128.
12.14000, 134.
12.17000, 137.
12.20000, 155.
12.23000, 146.
12.26000, 131.
12.29000, 127.
12.32000, 139.
12.35000, 141.
12.38000, 137.
12.41000, 158.
12.44000, 118.
12.47000, 132.
12.50000, 133.
12.53000, 133.
12.56000, 171.
12.59000, 163.
12.62000, 191.
12.65000, 155.
12.68000, 193.
12.71000, 167.
12.74000, 195.
12.77000, 203.
12.80000, 182.
12.83000, 188.
12.86000, 141.
12.89000, 166.
12.92000, 145.
12.95000, 172.
12.98000, 147.
13.01000, 150.
13.04000, 145.
13.07000, 153.
13.10000, 141.
13.13000, 154.
13.16000, 155.
13.19000, 156.
13.22000, 168.
13.25000, 169.
13.28000, 216.
13.31000, 245.
13.34000, 230.
13.37000, 239.
13.40000, 225.
13.43000, 219.
13.46000, 219.
13.49000, 189.
13.52000, 171.
13.55000, 151.
13.58000, 156.
13.61000, 148.
13.64000, 150.
13.67000, 143.
13.70000, 132.
13.73000, 156.
13.76000, 148.
13.79000, 151.
13.82000, 154.
13.85000, 151.
13.88000, 131.
13.91000, 168.
13.94000, 182.
13.97000, 214.
14.00000, 325.
14.03000, 362.
14.06000, 481.
14.09000, 508.
14.12000, 545.
14.15000, 517.
14.18000, 493.
14.21000, 403.
14.24000, 292.
14.27000, 223.
14.30000, 195.
14.33000, 169.
14.36000, 142.
14.39000, 132.
14.42000, 130.
14.45000, 140.
14.48000, 138.
14.51000, 156.
14.54000, 139.
14.57000, 168.
14.60000, 121.
14.63000, 148.
14.66000, 165.
14.69000, 147.
14.72000, 154.
14.75000, 174.
14.78000, 133.
14.81000, 144.
14.84000, 173.
14.87000, 174.
14.90000, 151.
14.93000, 180.
14.96000, 189.
14.99000, 185.
15.02000, 182.
15.05000, 154.
15.08000, 157.
15.11000, 148.
15.14000, 133.
15.17000, 143.
15.20000, 138.
15.23000, 161.
15.26000, 126.
15.29000, 131.
15.32000, 141.
15.35000, 131.
15.38000, 116.
15.41000, 140.
15.44000, 161.
15.47000, 129.
15.50000, 140.
15.53000, 172.
15.56000, 168.
15.59000, 180.
15.62000, 251.
15.65000, 274.
15.68000, 251.
15.71000, 291.
15.74000, 307.
15.77000, 313.
15.80000, 291.
15.83000, 287.
15.86000, 221.
15.89000, 254.
15.92000, 199.
15.95000, 164.
15.98000, 135.
16.01000, 136.
16.04000, 144.
16.07000, 149.
16.10000, 148.
16.13000, 162.
16.16000, 161.
16.19000, 143.
16.22000, 129.
16.25000, 124.
16.28000, 145.
16.31000, 129.
16.34000, 151.
16.37000, 134.
16.40000, 144.
16.43000, 133.
16.46000, 145.
16.49000, 151.
16.52000, 162.
16.55000, 153.
16.58000, 154.
16.61000, 168.
16.64000, 157.
16.67000, 151.
16.70000, 150.
16.73000, 138.
16.76000, 158.
16.79000, 127.
16.82000, 129.
16.85000, 161.
16.88000, 139.
16.91000, 129.
16.94000, 148.
16.97000, 173.
17.00000, 121.
17.03000, 129.
17.06000, 150.
17.09000, 148.
17.12000, 158.
17.15000, 149.
17.18000, 128.
17.21000, 148.
17.24000, 169.
17.27000, 156.
17.30000, 165.
17.33000, 138.
17.36000, 154.
17.39000, 153.
17.42000, 162.
17.45000, 150.
17.48000, 179.
17.51000, 176.
17.54000, 176.
17.57000, 175.
17.60000, 190.
17.63000, 187.
17.66000, 186.
17.69000, 186.
17.72000, 195.
17.75000, 159.
17.78000, 197.
17.81000, 170.
17.84000, 178.
17.87000, 183.
17.90000, 211.
17.93000, 177.
17.96000, 217.
17.99000, 199.
18.02000, 195.
18.05000, 199.
18.08000, 207.
18.11000, 235.
18.14000, 236.
18.17000, 251.
18.20000, 268.
18.23000, 268.
18.26000, 285.
18.29000, 337.
18.32000, 320.
18.35000, 364.
18.38000, 387.
18.41000, 432.
18.44000, 447.
18.47000, 477.
18.50000, 532.
18.53000, 570.
18.56000, 629.
18.59000, 665.
18.62000, 751.
18.65000, 727.
18.68000, 733.
18.71000, 800.
18.74000, 797.
18.77000, 884.
18.80000, 857.
18.83000, 812.
18.86000, 795.
18.89000, 765.
18.92000, 715.
18.95000, 735.
18.98000, 634.
19.01000, 653.
19.04000, 618.
19.07000, 551.
19.10000, 527.
19.13000, 473.
19.16000, 424.
19.19000, 344.
19.22000, 408.
19.25000, 303.
19.28000, 303.
19.31000, 293.
19.34000, 271.
19.37000, 278.
19.40000, 246.
19.43000, 239.
19.46000, 238.
19.49000, 210.
19.52000, 210.
19.55000, 208.
19.58000, 186.
19.61000, 188.
19.64000, 167.
19.67000, 151.
19.70000, 167.
19.73000, 147.
19.76000, 158.
19.79000, 170.
19.82000, 145.
19.85000, 179.
19.88000, 197.
19.91000, 210.
19.94000, 274.
19.97000, 302.
20.00000, 345.
20.03000, 400.
20.06000, 436.
20.09000, 479.
20.12000, 563.
20.15000, 503.
20.18000, 507.
20.21000, 492.
20.24000, 425.
20.27000, 360.
20.30000, 304.
20.33000, 245.
20.36000, 182.
20.39000, 160.
20.42000, 150.
20.45000, 145.
20.48000, 142.
20.51000, 130.
20.54000, 146.
20.57000, 164.
20.60000, 153.
20.63000, 162.
20.66000, 157.
20.69000, 159.
20.72000, 194.
20.75000, 174.
20.78000, 203.
20.81000, 212.
20.84000, 231.
20.87000, 223.
20.90000, 208.
20.93000, 240.
20.96000, 213.
20.99000, 197.
21.02000, 206.
21.05000, 218.
21.08000, 219.
21.11000, 201.
21.14000, 221.
21.17000, 201.
21.20000, 194.
21.23000, 172.
21.26000, 181.
21.29000, 195.
21.32000, 176.
21.35000, 180.
21.38000, 164.
21.41000, 156.
21.44000, 144.
21.47000, 139.
21.50000, 149.
21.53000, 137.
21.56000, 109.
21.59000, 129.
21.62000, 110.
21.65000, 113.
21.68000, 134.
21.71000, 117.
21.74000, 104.
21.77000, 101.
21.80000, 106.
21.83000, 102.
21.86000, 86.
21.89000, 106.
21.92000, 90.
21.95000, 107.
21.98000, 89.
22.01000, 97.
22.04000, 76.
22.07000, 95.
22.10000, 90.
22.13000, 95.
22.16000, 75.
22.19000, 76.
22.22000, 81.
22.25000, 94.
22.28000, 78.
22.31000, 64.
22.34000, 73.
22.37000, 86.
22.40000, 66.
22.43000, 72.
22.46000, 87.
22.49000, 87.
22.52000, 103.
22.55000, 115.
22.58000, 95.
22.61000, 100.
22.64000, 134.
22.67000, 130.
22.70000, 139.
22.73000, 122.
22.76000, 114.
22.79000, 109.
22.82000, 80.
22.85000, 95.
22.88000, 67.
22.91000, 67.
22.94000, 61.
22.97000, 78.
23.00000, 81.
23.03000, 61.
23.06000, 76.
23.09000, 77.
23.12000, 82.
23.15000, 71.
23.18000, 77.
23.21000, 83.
23.24000, 73.
23.27000, 63.
23.30000, 67.
23.33000, 56.
23.36000, 60.
23.39000, 72.
23.42000, 61.
23.45000, 40.
23.48000, 78.
23.51000, 45.
23.54000, 57.
23.57000, 80.
23.60000, 63.
23.63000, 65.
23.66000, 55.
23.69000, 73.
23.72000, 53.
23.75000, 56.
23.78000, 51.
23.81000, 66.
23.84000, 58.
23.87000, 55.
23.90000, 52.
23.93000, 57.
23.96000, 49.
23.99000, 57.
24.02000, 53.
24.05000, 51.
24.08000, 69.
24.11000, 78.
24.14000, 67.
24.17000, 50.
24.20000, 63.
24.23000, 64.
24.26000, 56.
24.29000, 55.
24.32000, 77.
24.35000, 65.
24.38000, 61.
24.41000, 48.
24.44000, 66.
24.47000, 62.
24.50000, 60.
24.53000, 62.
24.56000, 43.
24.59000, 63.
24.62000, 50.
24.65000, 52.
24.68000, 58.
24.71000, 55.
24.74000, 65.
24.77000, 59.
24.80000, 70.
24.83000, 66.
24.86000, 54.
24.89000, 71.
24.92000, 71.
24.95000, 53.
24.98000, 60.
25.01000, 73.
25.04000, 67.
25.07000, 59.
25.10000, 48.
25.13000, 70.
25.16000, 70.
25.19000, 78.
25.22000, 80.
25.25000, 67.
25.28000, 61.
25.31000, 78.
25.34000, 61.
25.37000, 57.
25.40000, 46.
25.43000, 66.
25.46000, 53.
25.49000, 63.
25.52000, 59.
25.55000, 53.
25.58000, 72.
25.61000, 57.
25.64000, 59.
25.67000, 53.
25.70000, 59.
25.73000, 52.
25.76000, 63.
25.79000, 47.
25.82000, 68.
25.85000, 59.
25.88000, 58.
25.91000, 54.
25.94000, 57.
25.97000, 58.
26.00000, 43.
26.03000, 36.
26.06000, 38.
26.09000, 49.
26.12000, 46.
26.15000, 52.
26.18000, 64.
26.21000, 51.
26.24000, 54.
26.27000, 59.
26.30000, 54.
26.33000, 50.
26.36000, 61.
26.39000, 70.
26.42000, 53.
26.45000, 47.
26.48000, 59.
26.51000, 40.
26.54000, 57.
26.57000, 53.
26.60000, 62.
26.63000, 62.
26.66000, 64.
26.69000, 54.
26.72000, 39.
26.75000, 47.
26.78000, 36.
26.81000, 35.
26.84000, 50.
26.87000, 51.
26.90000, 56.
26.93000, 42.
26.96000, 47.
26.99000, 48.
27.02000, 44.
27.05000, 49.
27.08000, 63.
27.11000, 52.
27.14000, 54.
27.17000, 36.
27.20000, 48.
27.23000, 58.
27.26000, 49.
27.29000, 50.
27.32000, 45.
27.35000, 54.
27.38000, 52.
27.41000, 39.
27.44000, 55.
27.47000, 62.
27.50000, 32.
27.53000, 47.
27.56000, 47.
27.59000, 38.
27.62000, 44.
27.65000, 47.
27.68000, 45.
27.71000, 44.
27.74000, 48.
27.77000, 37.
27.80000, 45.
27.83000, 46.
27.86000, 35.
27.89000, 37.
27.92000, 40.
27.95000, 52.
27.98000, 32.
28.01000, 36.
28.04000, 26.
28.07000, 30.
28.10000, 45.
28.13000, 46.
28.16000, 46.
28.19000, 33.
28.22000, 41.
28.25000, 35.
28.28000, 31.
28.31000, 45.
28.34000, 31.
28.37000, 47.
28.40000, 40.
28.43000, 38.
28.46000, 33.
28.49000, 38.
28.52000, 35.
28.55000, 39.
28.58000, 26.
28.61000, 43.
28.64000, 38.
28.67000, 41.
28.70000, 49.
28.73000, 34.
28.76000, 45.
28.79000, 32.
28.82000, 47.
28.85000, 38.
28.88000, 35.
28.91000, 33.
28.94000, 36.
28.97000, 32.
29.00000, 34.
29.03000, 43.
29.06000, 31.
29.09000, 37.
29.12000, 27.
29.15000, 36.
29.18000, 39.
29.21000, 39.
29.24000, 39.
29.27000, 29.
29.30000, 28.
29.33000, 40.
29.36000, 40.
29.39000, 33.
29.42000, 24.
29.45000, 33.
29.48000, 25.
29.51000, 24.
29.54000, 36.
29.57000, 33.
29.60000, 34.
29.63000, 35.
29.66000, 50.
29.69000, 43.
29.72000, 33.
29.75000, 37.
29.78000, 40.
29.81000, 39.
29.84000, 21.
29.87000, 29.
29.90000, 36.
29.93000, 34.
29.96000, 34.
29.99000, 36.
30.02000, 33.
30.05000, 31.
30.08000, 33.
30.11000, 32.
30.14000, 38.
30.17000, 30.
30.20000, 38.
30.23000, 35.
30.26000, 27.
30.29000, 28.
30.32000, 27.
30.35000, 30.
30.38000, 30.
30.41000, 27.
30.44000, 30.
30.47000, 33.
30.50000, 31.
30.53000, 32.
30.56000, 24.
30.59000, 31.
30.62000, 35.
30.65000, 31.
30.68000, 38.
30.71000, 27.
30.74000, 21.
30.77000, 24.
30.80000, 24.
30.83000, 23.
30.86000, 32.
30.89000, 31.
30.92000, 29.
30.95000, 24.
30.98000, 27.
31.01000, 34.
31.04000, 35.
31.07000, 29.
31.10000, 30.
31.13000, 19.
31.16000, 26.
31.19000, 39.
31.22000, 31.
31.25000, 26.
31.28000, 41.
31.31000, 25.
31.34000, 30.
31.37000, 29.
31.40000, 22.
31.43000, 26.
31.46000, 26.
31.49000, 31.
31.52000, 23.
31.55000, 29.
31.58000, 26.
31.61000, 22.
31.64000, 29.
31.67000, 33.
31.70000, 30.
31.73000, 22.
31.76000, 25.
31.79000, 26.
31.82000, 33.
31.85000, 25.
31.88000, 26.
31.91000, 33.
31.94000, 26.
31.97000, 28.
32.00000, 23.
32.03000, 29.
32.06000, 32.
32.09000, 28.
32.12000, 27.
32.15000, 33.
32.18000, 31.
32.21000, 48.
32.24000, 30.
32.27000, 30.
32.30000, 24.
32.33000, 25.
32.36000, 25.
32.39000, 27.
32.42000, 23.
32.45000, 25.
32.48000, 29.
32.51000, 19.
32.54000, 24.
32.57000, 16.
32.60000, 18.
32.63000, 32.
32.66000, 24.
32.69000, 30.
32.72000, 19.
32.75000, 23.
32.78000, 26.
32.81000, 21.
32.84000, 19.
32.87000, 18.
32.90000, 28.
32.93000, 33.
32.96000, 15.
32.99000, 25.
33.02000, 41.
33.05000, 17.
33.08000, 22.
33.11000, 19.
33.14000, 35.
33.17000, 24.
33.20000, 26.
33.23000, 10.
33.26000, 23.
33.29000, 15.
33.32000, 16.
33.35000, 27.
33.38000, 18.
33.41000, 20.
33.44000, 20.
33.47000, 25.
33.50000, 27.
33.53000, 19.
33.56000, 15.
33.59000, 20.
33.62000, 17.
33.65000, 13.
33.68000, 21.
33.71000, 19.
33.74000, 19.
33.77000, 25.
33.80000, 17.
33.83000, 16.
33.86000, 17.
33.89000, 15.
33.92000, 19.
33.95000, 22.
33.98000, 17.
34.01000, 20.
34.04000, 15.
34.07000, 21.
34.10000, 16.
34.13000, 21.
34.16000, 20.
34.19000, 15.
34.22000, 26.
34.25000, 15.
34.28000, 24.
34.31000, 18.
34.34000, 13.
34.37000, 11.
34.40000, 15.
34.43000, 24.
34.46000, 25.
34.49000, 13.
34.52000, 12.
34.55000, 29.
34.58000, 11.
34.61000, 13.
34.64000, 19.
34.67000, 18.
34.70000, 20.
34.73000, 18.
34.76000, 18.
34.79000, 23.
34.82000, 19.
34.85000, 15.
34.88000, 11.
34.91000, 18.
34.94000, 21.
34.97000, 17.
35.00000, 16.
35.03000, 15.
35.06000, 17.
35.09000, 9.
35.12000, 14.
35.15000, 20.
35.18000, 12.
35.21000, 16.
35.24000, 12.
35.27000, 16.
35.30000, 22.
35.33000, 13.
35.36000, 17.
35.39000, 14.
35.42000, 13.
35.45000, 15.
35.48000, 11.
35.51000, 15.
35.54000, 18.
35.57000, 19.
35.60000, 14.
35.63000, 11.
35.66000, 17.
35.69000, 13.
35.72000, 15.
35.75000, 11.
35.78000, 12.
35.81000, 21.
35.84000, 12.
35.87000, 18.
35.90000, 7.
35.93000, 15.
35.96000, 10.
35.99000, 15.
36.02000, 7.
36.05000, 19.
36.08000, 14.
36.11000, 18.
36.14000, 15.
36.17000, 12.
36.20000, 11.
36.23000, 11.
36.26000, 12.
36.29000, 12.
36.32000, 18.
36.35000, 12.
36.38000, 10.
36.41000, 13.
36.44000, 11.
36.47000, 12.
36.50000, 11.
36.53000, 9.
36.56000, 5.
36.59000, 9.
36.62000, 13.
36.65000, 6.
36.68000, 10.
36.71000, 16.
36.74000, 7.
36.77000, 9.
36.80000, 18.
36.83000, 13.
36.86000, 11.
36.89000, 12.
36.92000, 9.
36.95000, 14.
36.98000, 10.
37.01000, 9.
37.04000, 13.
37.07000, 6.
37.10000, 5.
37.13000, 11.
37.16000, 7.
37.19000, 13.
37.22000, 12.
37.25000, 14.
37.28000, 12.
37.31000, 6.
37.34000, 9.
37.37000, 14.
37.40000, 9.
37.43000, 9.
37.46000, 10.
37.49000, 15.
37.52000, 10.
37.55000, 5.
37.58000, 10.
37.61000, 7.
37.64000, 12.
37.67000, 18.
37.70000, 11.
37.73000, 13.
37.76000, 5.
37.79000, 16.
37.82000, 10.
37.85000, 12.
37.88000, 4.
37.91000, 5.
37.94000, 6.
37.97000, 7.
38.00000, 9.
38.03000, 14.
38.06000, 14.
38.09000, 7.
38.12000, 9.
38.15000, 12.
38.18000, 7.
38.21000, 4.
38.24000, 5.
38.27000, 10.
38.30000, 4.
38.33000, 9.
38.36000, 8.
38.39000, 6.
38.42000, 6.
38.45000, 4.
38.48000, 10.
38.51000, 10.
38.54000, 15.
38.57000, 11.
38.60000, 7.
38.63000, 11.
38.66000, 4.
38.69000, 4.
38.72000, 9.
38.75000, 4.
38.78000, 4.
38.81000, 6.
38.84000, 9.
38.87000, 13.
38.90000, 7.
38.93000, 5.
38.96000, 9.
38.99000, 6.
39.02000, 6.
39.05000, 9.
39.08000, 5.
39.11000, 5.
39.14000, 6.
39.17000, 7.
39.20000, 7.
39.23000, 7.
39.26000, 5.
39.29000, 5.
39.32000, 6.
39.35000, 4.
39.38000, 5.
39.41000, 5.
39.44000, 9.
39.47000, 5.
39.50000, 5.
39.53000, 4.
39.56000, 8.
39.59000, 5.
39.62000, 5.
39.65000, 6.
39.68000, 7.
39.71000, 7.
39.74000, 8.
39.77000, 5.
39.80000, 4.
39.83000, 3.
39.86000, 5.
39.89000, 5.
39.92000, 11.
39.95000, 9.
39.98000, 3.
40.01000, 7.
40.04000, 7.
40.07000, 4.
40.10000, 8.
40.13000, 6.
40.16000, 8.
40.19000, 2.
40.22000, 5.
40.25000, 3.
40.28000, 3.
40.31000, 7.
40.34000, 5.
40.37000, 5.
40.40000, 7.
40.43000, 3.
40.46000, 3.
40.49000, 7.
40.52000, 3.
40.55000, 0.
#ENDOFDATA   :