File: sample_data/data/Spectrum value from standard/stds 2/Spectrum 21.txt
#FORMAT      : EMSA/MAS Spectral Data File
#VERSION     : 1.0
#TITLE       : Spectrum 21
#DATE        : 21-AUG-2025
#TIME        : 15:25
#OWNER       : XGT7200
#NPOINTS     : 4096.
#NCOLUMNS    : 1.
#XUNITS      : keV
#YUNITS      : counts
#DATATYPE    : XY
#XPERCHAN    : 0.0100000
#OFFSET      : -0.400000
#SIGNALTYPE  : EDS
#CHOFFSET    : 40.0000
#LIVETIME    : 30
#REALTIME    : 39.6462
#BEAMKV      : 50.0000
#PROBECUR    : 689000.
#MAGCAM      : 100.000
#XTILTSTGE   : 0.0
#AZIMANGLE   : 0.0
#ELEVANGLE   : 45.0
#XPOSITION mm: 0.0000
#YPOSITION mm: 0.0000
#ZPOSITION mm: 0.0000
##OXINSTPT   : 4
##OXINSTSTROB: 72.04
#SPECTRUM    : Spectral Data Starts Here
-0.40000, 0.
-0.37000, 0.
-0.34000, 0.
-0.31000, 0.
-0.28000, 0.
-0.25000, 0.
-0.22000, 0.
-0.19000, 0.
-0.16000, 0.
-0.13000, 0.
-0.10000, 0.
-0.07000, 0.
-0.04000, 0.
-0.01000, 0.
0.02000, 0.
0.05000, 0.
0.08000, 0.
0.11000, 0.
0.14000, 0.
0.17000, 0.
0.20000, 0.
0.23000, 0.
0.26000, 0.
0.29000, 0.
0.32000, 0.
0.35000, 1.
0.38000, 14.
0.41000, 34.
0.44000, 46.
0.47000, 36.
0.50000, 49.
0.53000, 37.
0.56000, 35.
0.59000, 43.
0.62000, 30.
0.65000, 40.
0.68000, 32.
0.71000, 41.
0.74000, 33.
0.77000, 31.
0.80000, 39.
0.83000, 34.
0.86000, 36.
0.89000, 38.
0.92000, 37.
0.95000, 37.
0.98000, 36.
1.01000, 56.
1.04000, 43.
1.07000, 46.
1.10000, 49.
1.13000, 32.
1.16000, 44.
1.19000, 44.
1.22000, 82.
1.25000, 105.
1.28000, 94.
1.31000, 63.
1.34000, 37.
1.37000, 51.
1.40000, 125.
1.43000, 295.
1.46000, 650.
1.49000, 931.
1.52000, 750.
1.55000, 401.
1.58000, 159.
1.61000, 101.
1.64000, 276.
1.67000, 1104.
1.70000, 3095.
1.73000, 5097.
1.76000, 5314.
1.79000, 3299.
1.82000, 1392.
1.85000, 492.
1.88000, 205.
1.91000, 103.
1.94000, 76.
1.97000, 93.
2.00000, 82.
2.03000, 85.
2.06000, 63.
2.09000, 33.
2.12000, 32.
2.15000, 24.
2.18000, 35.
2.21000, 31.
2.24000, 50.
2.27000, 72.
2.30000, 103.
2.33000, 98.
2.36000, 55.
2.39000, 44.
2.42000, 30.
2.45000, 36.
2.48000, 36.
2.51000, 44.
2.54000, 41.
2.57000, 68.
2.60000, 114.
2.63000, 206.
2.66000, 381.
2.69000, 510.
2.72000, 492.
2.75000, 366.
2.78000, 263.
2.81000, 248.
2.84000, 230.
2.87000, 204.
2.90000, 173.
2.93000, 141.
2.96000, 79.
2.99000, 67.
3.02000, 54.
3.05000, 33.
3.08000, 31.
3.11000, 35.
3.14000, 33.
3.17000, 31.
3.20000, 84.
3.23000, 203.
3.26000, 438.
3.29000, 626.
3.32000, 814.
3.35000, 630.
3.38000, 373.
3.41000, 163.
3.44000, 58.
3.47000, 47.
3.50000, 52.
3.53000, 103.
3.56000, 153.
3.59000, 329.
3.62000, 709.
3.65000, 1289.
3.68000, 1726.
3.71000, 1804.
3.74000, 1238.
3.77000, 626.
3.80000, 218.
3.83000, 71.
3.86000, 38.
3.89000, 47.
3.92000, 77.
3.95000, 168.
3.98000, 241.
4.01000, 300.
4.04000, 260.
4.07000, 189.
4.10000, 122.
4.13000, 53.
4.16000, 45.
4.19000, 30.
4.22000, 36.
4.25000, 38.
4.28000, 27.
4.31000, 36.
4.34000, 34.
4.37000, 62.
4.40000, 128.
4.43000, 218.
4.46000, 373.
4.49000, 547.
4.52000, 558.
4.55000, 428.
4.58000, 312.
4.61000, 184.
4.64000, 121.
4.67000, 101.
4.70000, 86.
4.73000, 68.
4.76000, 67.
4.79000, 65.
4.82000, 73.
4.85000, 90.
4.88000, 103.
4.91000, 152.
4.94000, 151.
4.97000, 141.
5.00000, 103.
5.03000, 72.
5.06000, 63.
5.09000, 59.
5.12000, 55.
5.15000, 62.
5.18000, 64.
5.21000, 81.
5.24000, 51.
5.27000, 64.
5.30000, 67.
5.33000, 64.
5.36000, 70.
5.39000, 88.
5.42000, 89.
5.45000, 76.
5.48000, 64.
5.51000, 67.
5.54000, 64.
5.57000, 47.
5.60000, 51.
5.63000, 47.
5.66000, 54.
5.69000, 64.
5.72000, 62.
5.75000, 59.
5.78000, 86.
5.81000, 146.
5.84000, 237.
5.87000, 315.
5.90000, 337.
5.93000, 296.
5.96000, 204.
5.99000, 146.
6.02000, 101.
6.05000, 85.
6.08000, 92.
6.11000, 105.
6.14000, 120.
6.17000, 110.
6.20000, 220.
6.23000, 588.
6.26000, 1433.
6.29000, 3749.
6.32000, 7766.
6.35000, 12603.
6.38000, 16688.
6.41000, 17343.
6.44000, 14127.
6.47000, 9041.
6.50000, 4651.
6.53000, 1961.
6.56000, 669.
6.59000, 260.
6.62000, 132.
6.65000, 121.
6.68000, 103.
6.71000, 111.
6.74000, 101.
6.77000, 123.
6.80000, 117.
6.83000, 131.
6.86000, 180.
6.89000, 247.
6.92000, 505.
6.95000, 913.
6.98000, 1503.
7.01000, 2275.
7.04000, 2769.
7.07000, 2712.
7.10000, 2073.
7.13000, 1416.
7.16000, 759.
7.19000, 344.
7.22000, 175.
7.25000, 109.
7.28000, 62.
7.31000, 66.
7.34000, 87.
7.37000, 79.
7.40000, 65.
7.43000, 92.
7.46000, 87.
7.49000, 84.
7.52000, 104.
7.55000, 82.
7.58000, 76.
7.61000, 69.
7.64000, 80.
7.67000, 72.
7.70000, 77.
7.73000, 65.
7.76000, 78.
7.79000, 78.
7.82000, 83.
7.85000, 82.
7.88000, 91.
7.91000, 96.
7.94000, 124.
7.97000, 133.
8.00000, 120.
8.03000, 141.
8.06000, 123.
8.09000, 139.
8.12000, 137.
8.15000, 127.
8.18000, 142.
8.21000, 119.
8.24000, 106.
8.27000, 110.
8.30000, 97.
8.33000, 102.
8.36000, 94.
8.39000, 101.
8.42000, 104.
8.45000, 89.
8.48000, 86.
8.51000, 118.
8.54000, 158.
8.57000, 227.
8.60000, 206.
8.63000, 226.
8.66000, 249.
8.69000, 216.
8.72000, 174.
8.75000, 114.
8.78000, 116.
8.81000, 102.
8.84000, 104.
8.87000, 92.
8.90000, 106.
8.93000, 109.
8.96000, 109.
8.99000, 118.
9.02000, 110.
9.05000, 111.
9.08000, 113.
9.11000, 107.
9.14000, 108.
9.17000, 128.
9.20000, 102.
9.23000, 131.
9.26000, 116.
9.29000, 117.
9.32000, 105.
9.35000, 114.
9.38000, 100.
9.41000, 110.
9.44000, 130.
9.47000, 118.
9.50000, 127.
9.53000, 129.
9.56000, 134.
9.59000, 137.
9.62000, 113.
9.65000, 139.
9.68000, 124.
9.71000, 117.
9.74000, 111.
9.77000, 118.
9.80000, 123.
9.83000, 113.
9.86000, 113.
9.89000, 129.
9.92000, 113.
9.95000, 101.
9.98000, 128.
10.01000, 112.
10.04000, 114.
10.07000, 126.
10.10000, 122.
10.13000, 125.
10.16000, 110.
10.19000, 112.
10.22000, 114.
10.25000, 109.
10.28000, 113.
10.31000, 118.
10.34000, 122.
10.37000, 119.
10.40000, 135.
10.43000, 144.
10.46000, 145.
10.49000, 158.
10.52000, 173.
10.55000, 196.
10.58000, 150.
10.61000, 142.
10.64000, 133.
10.67000, 140.
10.70000, 125.
10.73000, 143.
10.76000, 122.
10.79000, 116.
10.82000, 113.
10.85000, 121.
10.88000, 113.
10.91000, 111.
10.94000, 119.
10.97000, 108.
11.00000, 120.
11.03000, 105.
11.06000, 122.
11.09000, 119.
11.12000, 110.
11.15000, 100.
11.18000, 111.
11.21000, 130.
11.24000, 114.
11.27000, 135.
11.30000, 112.
11.33000, 135.
11.36000, 121.
11.39000, 150.
11.42000, 142.
11.45000, 122.
11.48000, 128.
11.51000, 133.
11.54000, 126.
11.57000, 133.
11.60000, 133.
11.63000, 137.
11.66000, 124.
11.69000, 142.
11.72000, 135.
11.75000, 123.
11.78000, 145.
11.81000, 135.
11.84000, 133.
11.87000, 121.
11.90000, 140.
11.93000, 148.
11.96000, 147.
11.99000, 152.
12.02000, 132.
12.05000, 131.
12.08000, 126.
12.11000, 125.
12.14000, 139.
12.17000, 135.
12.20000, 136.
12.23000, 130.
12.26000, 143.
12.29000, 127.
12.32000, 135.
12.35000, 146.
12.38000, 129.
12.41000, 142.
12.44000, 166.
12.47000, 155.
12.50000, 173.
12.53000, 144.
12.56000, 165.
12.59000, 165.
12.62000, 170.
12.65000, 156.
12.68000, 156.
12.71000, 177.
12.74000, 172.
12.77000, 195.
12.80000, 193.
12.83000, 168.
12.86000, 180.
12.89000, 153.
12.92000, 146.
12.95000, 147.
12.98000, 155.
13.01000, 144.
13.04000, 120.
13.07000, 150.
13.10000, 153.
13.13000, 131.
13.16000, 141.
13.19000, 143.
13.22000, 162.
13.25000, 182.
13.28000, 197.
13.31000, 214.
13.34000, 250.
13.37000, 239.
13.40000, 240.
13.43000, 225.
13.46000, 206.
13.49000, 171.
13.52000, 170.
13.55000, 158.
13.58000, 152.
13.61000, 153.
13.64000, 170.
13.67000, 146.
13.70000, 152.
13.73000, 148.
13.76000, 142.
13.79000, 146.
13.82000, 153.
13.85000, 134.
13.88000, 165.
13.91000, 165.
13.94000, 160.
13.97000, 215.
14.00000, 303.
14.03000, 361.
14.06000, 428.
14.09000, 504.
14.12000, 531.
14.15000, 496.
14.18000, 468.
14.21000, 379.
14.24000, 322.
14.27000, 248.
14.30000, 211.
14.33000, 152.
14.36000, 141.
14.39000, 126.
14.42000, 128.
14.45000, 135.
14.48000, 126.
14.51000, 137.
14.54000, 131.
14.57000, 121.
14.60000, 134.
14.63000, 139.
14.66000, 132.
14.69000, 157.
14.72000, 144.
14.75000, 129.
14.78000, 149.
14.81000, 145.
14.84000, 160.
14.87000, 164.
14.90000, 200.
14.93000, 178.
14.96000, 187.
14.99000, 151.
15.02000, 171.
15.05000, 158.
15.08000, 131.
15.11000, 133.
15.14000, 133.
15.17000, 132.
15.20000, 119.
15.23000, 134.
15.26000, 122.
15.29000, 109.
15.32000, 129.
15.35000, 152.
15.38000, 140.
15.41000, 138.
15.44000, 126.
15.47000, 126.
15.50000, 131.
15.53000, 158.
15.56000, 171.
15.59000, 187.
15.62000, 213.
15.65000, 210.
15.68000, 267.
15.71000, 288.
15.74000, 298.
15.77000, 322.
15.80000, 288.
15.83000, 280.
15.86000, 244.
15.89000, 188.
15.92000, 191.
15.95000, 156.
15.98000, 135.
16.01000, 140.
16.04000, 148.
16.07000, 139.
16.10000, 150.
16.13000, 145.
16.16000, 142.
16.19000, 144.
16.22000, 136.
16.25000, 134.
16.28000, 140.
16.31000, 145.
16.34000, 139.
16.37000, 152.
16.40000, 120.
16.43000, 150.
16.46000, 146.
16.49000, 161.
16.52000, 138.
16.55000, 172.
16.58000, 161.
16.61000, 154.
16.64000, 147.
16.67000, 142.
16.70000, 156.
16.73000, 142.
16.76000, 157.
16.79000, 140.
16.82000, 165.
16.85000, 123.
16.88000, 134.
16.91000, 132.
16.94000, 140.
16.97000, 130.
17.00000, 132.
17.03000, 158.
17.06000, 149.
17.09000, 135.
17.12000, 133.
17.15000, 161.
17.18000, 139.
17.21000, 137.
17.24000, 149.
17.27000, 128.
17.30000, 152.
17.33000, 153.
17.36000, 139.
17.39000, 155.
17.42000, 174.
17.45000, 168.
17.48000, 166.
17.51000, 184.
17.54000, 159.
17.57000, 176.
17.60000, 182.
17.63000, 155.
17.66000, 188.
17.69000, 209.
17.72000, 163.
17.75000, 172.
17.78000, 182.
17.81000, 187.
17.84000, 173.
17.87000, 188.
17.90000, 161.
17.93000, 186.
17.96000, 189.
17.99000, 214.
18.02000, 189.
18.05000, 210.
18.08000, 194.
18.11000, 230.
18.14000, 207.
18.17000, 250.
18.20000, 257.
18.23000, 257.
18.26000, 294.
18.29000, 297.
18.32000, 355.
18.35000, 361.
18.38000, 368.
18.41000, 379.
18.44000, 431.
18.47000, 518.
18.50000, 540.
18.53000, 582.
18.56000, 600.
18.59000, 652.
18.62000, 701.
18.65000, 714.
18.68000, 727.
18.71000, 774.
18.74000, 817.
18.77000, 796.
18.80000, 845.
18.83000, 897.
18.86000, 776.
18.89000, 763.
18.92000, 718.
18.95000, 750.
18.98000, 690.
19.01000, 683.
19.04000, 569.
19.07000, 542.
19.10000, 433.
19.13000, 483.
19.16000, 437.
19.19000, 385.
19.22000, 344.
19.25000, 331.
19.28000, 306.
19.31000, 303.
19.34000, 255.
19.37000, 266.
19.40000, 263.
19.43000, 224.
19.46000, 227.
19.49000, 196.
19.52000, 197.
19.55000, 185.
19.58000, 184.
19.61000, 163.
19.64000, 155.
19.67000, 167.
19.70000, 170.
19.73000, 160.
19.76000, 146.
19.79000, 172.
19.82000, 150.
19.85000, 168.
19.88000, 185.
19.91000, 239.
19.94000, 245.
19.97000, 294.
20.00000, 354.
20.03000, 393.
20.06000, 388.
20.09000, 498.
20.12000, 517.
20.15000, 533.
20.18000, 540.
20.21000, 450.
20.24000, 448.
20.27000, 364.
20.30000, 305.
20.33000, 253.
20.36000, 212.
20.39000, 151.
20.42000, 161.
20.45000, 159.
20.48000, 136.
20.51000, 153.
20.54000, 138.
20.57000, 149.
20.60000, 162.
20.63000, 175.
20.66000, 165.
20.69000, 156.
20.72000, 164.
20.75000, 162.
20.78000, 203.
20.81000, 188.
20.84000, 185.
20.87000, 228.
20.90000, 184.
20.93000, 209.
20.96000, 245.
20.99000, 246.
21.02000, 223.
21.05000, 254.
21.08000, 218.
21.11000, 214.
21.14000, 221.
21.17000, 205.
21.20000, 221.
21.23000, 178.
21.26000, 163.
21.29000, 153.
21.32000, 183.
21.35000, 153.
21.38000, 176.
21.41000, 140.
21.44000, 128.
21.47000, 128.
21.50000, 144.
21.53000, 120.
21.56000, 134.
21.59000, 105.
21.62000, 121.
21.65000, 111.
21.68000, 117.
21.71000, 100.
21.74000, 115.
21.77000, 94.
21.80000, 111.
21.83000, 112.
21.86000, 94.
21.89000, 96.
21.92000, 71.
21.95000, 104.
21.98000, 91.
22.01000, 82.
22.04000, 83.
22.07000, 78.
22.10000, 84.
22.13000, 85.
22.16000, 95.
22.19000, 74.
22.22000, 79.
22.25000, 83.
22.28000, 65.
22.31000, 66.
22.34000, 85.
22.37000, 65.
22.40000, 79.
22.43000, 67.
22.46000, 72.
22.49000, 87.
22.52000, 91.
22.55000, 112.
22.58000, 114.
22.61000, 133.
22.64000, 137.
22.67000, 127.
22.70000, 126.
22.73000, 135.
22.76000, 123.
22.79000, 110.
22.82000, 100.
22.85000, 94.
22.88000, 79.
22.91000, 63.
22.94000, 76.
22.97000, 72.
23.00000, 72.
23.03000, 79.
23.06000, 80.
23.09000, 72.
23.12000, 65.
23.15000, 61.
23.18000, 69.
23.21000, 56.
23.24000, 76.
23.27000, 77.
23.30000, 62.
23.33000, 58.
23.36000, 66.
23.39000, 66.
23.42000, 79.
23.45000, 66.
23.48000, 62.
23.51000, 52.
23.54000, 58.
23.57000, 72.
23.60000, 67.
23.63000, 58.
23.66000, 74.
23.69000, 66.
23.72000, 61.
23.75000, 75.
23.78000, 58.
23.81000, 76.
23.84000, 67.
23.87000, 56.
23.90000, 55.
23.93000, 63.
23.96000, 55.
23.99000, 63.
24.02000, 63.
24.05000, 60.
24.08000, 58.
24.11000, 62.
24.14000, 48.
24.17000, 60.
24.20000, 77.
24.23000, 50.
24.26000, 71.
24.29000, 64.
24.32000, 61.
24.35000, 62.
24.38000, 57.
24.41000, 58.
24.44000, 52.
24.47000, 58.
24.50000, 58.
24.53000, 54.
24.56000, 64.
24.59000, 47.
24.62000, 60.
24.65000, 65.
24.68000, 57.
24.71000, 59.
24.74000, 59.
24.77000, 53.
24.80000, 52.
24.83000, 58.
24.86000, 64.
24.89000, 61.
24.92000, 57.
24.95000, 63.
24.98000, 51.
25.01000, 58.
25.04000, 67.
25.07000, 62.
25.10000, 55.
25.13000, 76.
25.16000, 62.
25.19000, 64.
25.22000, 65.
25.25000, 65.
25.28000, 59.
25.31000, 67.
25.34000, 61.
25.37000, 46.
25.40000, 52.
25.43000, 65.
25.46000, 56.
25.49000, 57.
25.52000, 61.
25.55000, 63.
25.58000, 50.
25.61000, 52.
25.64000, 63.
25.67000, 54.
25.70000, 44.
25.73000, 59.
25.76000, 54.
25.79000, 47.
25.82000, 48.
25.85000, 41.
25.88000, 55.
25.91000, 51.
25.94000, 50.
25.97000, 46.
26.00000, 55.
26.03000, 44.
26.06000, 49.
26.09000, 62.
26.12000, 56.
26.15000, 49.
26.18000, 60.
26.21000, 50.
26.24000, 54.
26.27000, 56.
26.30000, 73.
26.33000, 45.
26.36000, 58.
26.39000, 56.
26.42000, 51.
26.45000, 63.
26.48000, 57.
26.51000, 45.
26.54000, 51.
26.57000, 47.
26.60000, 57.
26.63000, 52.
26.66000, 50.
26.69000, 53.
26.72000, 48.
26.75000, 49.
26.78000, 61.
26.81000, 44.
26.84000, 43.
26.87000, 46.
26.90000, 42.
26.93000, 45.
26.96000, 53.
26.99000, 52.
27.02000, 53.
27.05000, 42.
27.08000, 53.
27.11000, 48.
27.14000, 47.
27.17000, 38.
27.20000, 42.
27.23000, 55.
27.26000, 43.
27.29000, 42.
27.32000, 40.
27.35000, 45.
27.38000, 40.
27.41000, 42.
27.44000, 40.
27.47000, 43.
27.50000, 52.
27.53000, 47.
27.56000, 55.
27.59000, 38.
27.62000, 40.
27.65000, 47.
27.68000, 36.
27.71000, 43.
27.74000, 41.
27.77000, 42.
27.80000, 48.
27.83000, 38.
27.86000, 46.
27.89000, 40.
27.92000, 33.
27.95000, 37.
27.98000, 39.
28.01000, 35.
28.04000, 39.
28.07000, 44.
28.10000, 44.
28.13000, 60.
28.16000, 50.
28.19000, 28.
28.22000, 42.
28.25000, 50.
28.28000, 58.
28.31000, 39.
28.34000, 50.
28.37000, 39.
28.40000, 41.
28.43000, 47.
28.46000, 50.
28.49000, 49.
28.52000, 46.
28.55000, 47.
28.58000, 33.
28.61000, 48.
28.64000, 35.
28.67000, 36.
28.70000, 49.
28.73000, 45.
28.76000, 38.
28.79000, 36.
28.82000, 43.
28.85000, 29.
28.88000, 45.
28.91000, 43.
28.94000, 42.
28.97000, 29.
29.00000, 37.
29.03000, 33.
29.06000, 38.
29.09000, 36.
29.12000, 40.
29.15000, 36.
29.18000, 33.
29.21000, 40.
29.24000, 49.
29.27000, 35.
29.30000, 36.
29.33000, 48.
29.36000, 34.
29.39000, 40.
29.42000, 29.
29.45000, 36.
29.48000, 36.
29.51000, 34.
29.54000, 36.
29.57000, 34.
29.60000, 42.
29.63000, 35.
29.66000, 35.
29.69000, 28.
29.72000, 33.
29.75000, 30.
29.78000, 33.
29.81000, 30.
29.84000, 26.
29.87000, 25.
29.90000, 28.
29.93000, 32.
29.96000, 35.
29.99000, 32.
30.02000, 36.
30.05000, 25.
30.08000, 29.
30.11000, 37.
30.14000, 34.
30.17000, 27.
30.20000, 26.
30.23000, 29.
30.26000, 26.
30.29000, 28.
30.32000, 42.
30.35000, 35.
30.38000, 40.
30.41000, 29.
30.44000, 27.
30.47000, 35.
30.50000, 36.
30.53000, 32.
30.56000, 27.
30.59000, 19.
30.62000, 29.
30.65000, 24.
30.68000, 32.
30.71000, 27.
30.74000, 39.
30.77000, 33.
30.80000, 22.
30.83000, 31.
30.86000, 33.
30.89000, 25.
30.92000, 29.
30.95000, 22.
30.98000, 35.
31.01000, 22.
31.04000, 24.
31.07000, 32.
31.10000, 26.
31.13000, 31.
31.16000, 35.
31.19000, 23.
31.22000, 23.
31.25000, 35.
31.28000, 26.
31.31000, 33.
31.34000, 25.
31.37000, 29.
31.40000, 28.
31.43000, 20.
31.46000, 25.
31.49000, 30.
31.52000, 35.
31.55000, 35.
31.58000, 26.
31.61000, 31.
31.64000, 34.
31.67000, 35.
31.70000, 27.
31.73000, 34.
31.76000, 26.
31.79000, 31.
31.82000, 37.
31.85000, 26.
31.88000, 22.
31.91000, 26.
31.94000, 32.
31.97000, 22.
32.00000, 35.
32.03000, 25.
32.06000, 30.
32.09000, 29.
32.12000, 30.
32.15000, 32.
32.18000, 32.
32.21000, 40.
32.24000, 27.
32.27000, 27.
32.30000, 31.
32.33000, 28.
32.36000, 21.
32.39000, 20.
32.42000, 20.
32.45000, 30.
32.48000, 21.
32.51000, 23.
32.54000, 26.
32.57000, 18.
32.60000, 23.
32.63000, 14.
32.66000, 26.
32.69000, 19.
32.72000, 20.
32.75000, 25.
32.78000, 28.
32.81000, 30.
32.84000, 19.
32.87000, 21.
32.90000, 21.
32.93000, 31.
32.96000, 24.
32.99000, 18.
33.02000, 22.
33.05000, 23.
33.08000, 22.
33.11000, 20.
33.14000, 31.
33.17000, 17.
33.20000, 20.
33.23000, 23.
33.26000, 25.
33.29000, 24.
33.32000, 14.
33.35000, 20.
33.38000, 18.
33.41000, 22.
33.44000, 26.
33.47000, 21.
33.50000, 17.
33.53000, 22.
33.56000, 21.
33.59000, 25.
33.62000, 18.
33.65000, 18.
33.68000, 16.
33.71000, 15.
33.74000, 11.
33.77000, 16.
33.80000, 18.
33.83000, 18.
33.86000, 15.
33.89000, 16.
33.92000, 16.
33.95000, 19.
33.98000, 14.
34.01000, 22.
34.04000, 19.
34.07000, 21.
34.10000, 20.
34.13000, 13.
34.16000, 26.
34.19000, 10.
34.22000, 13.
34.25000, 23.
34.28000, 20.
34.31000, 20.
34.34000, 14.
34.37000, 26.
34.40000, 23.
34.43000, 16.
34.46000, 19.
34.49000, 25.
34.52000, 19.
34.55000, 20.
34.58000, 15.
34.61000, 15.
34.64000, 10.
34.67000, 20.
34.70000, 14.
34.73000, 16.
34.76000, 22.
34.79000, 16.
34.82000, 15.
34.85000, 20.
34.88000, 18.
34.91000, 28.
34.94000, 14.
34.97000, 17.
35.00000, 17.
35.03000, 16.
35.06000, 14.
35.09000, 20.
35.12000, 21.
35.15000, 9.
35.18000, 13.
35.21000, 24.
35.24000, 14.
35.27000, 23.
35.30000, 10.
35.33000, 8.
35.36000, 19.
35.39000, 19.
35.42000, 18.
35.45000, 19.
35.48000, 15.
35.51000, 7.
35.54000, 17.
35.57000, 17.
35.60000, 10.
35.63000, 19.
35.66000, 12.
35.69000, 10.
35.72000, 14.
35.75000, 22.
35.78000, 16.
35.81000, 13.
35.84000, 10.
35.87000, 15.
35.90000, 12.
35.93000, 16.
35.96000, 11.
35.99000, 15.
36.02000, 16.
36.05000, 16.
36.08000, 12.
36.11000, 10.
36.14000, 15.
36.17000, 16.
36.20000, 12.
36.23000, 9.
36.26000, 8.
36.29000, 9.
36.32000, 5.
36.35000, 18.
36.38000, 10.
36.41000, 15.
36.44000, 7.
36.47000, 5.
36.50000, 5.
36.53000, 17.
36.56000, 15.
36.59000, 8.
36.62000, 7.
36.65000, 19.
36.68000, 10.
36.71000, 5.
36.74000, 11.
36.77000, 9.
36.80000, 11.
36.83000, 11.
36.86000, 13.
36.89000, 14.
36.92000, 13.
36.95000, 11.
36.98000, 11.
37.01000, 8.
37.04000, 10.
37.07000, 12.
37.10000, 17.
37.13000, 8.
37.16000, 16.
37.19000, 11.
37.22000, 15.
37.25000, 10.
37.28000, 13.
37.31000, 13.
37.34000, 12.
37.37000, 12.
37.40000, 8.
37.43000, 15.
37.46000, 7.
37.49000, 13.
37.52000, 11.
37.55000, 12.
37.58000, 10.
37.61000, 9.
37.64000, 8.
37.67000, 6.
37.70000, 10.
37.73000, 11.
37.76000, 9.
37.79000, 12.
37.82000, 9.
37.85000, 14.
37.88000, 12.
37.91000, 14.
37.94000, 7.
37.97000, 9.
38.00000, 13.
38.03000, 7.
38.06000, 8.
38.09000, 9.
38.12000, 9.
38.15000, 11.
38.18000, 17.
38.21000, 11.
38.24000, 9.
38.27000, 5.
38.30000, 2.
38.33000, 5.
38.36000, 8.
38.39000, 3.
38.42000, 12.
38.45000, 8.
38.48000, 2.
38.51000, 11.
38.54000, 2.
38.57000, 10.
38.60000, 8.
38.63000, 10.
38.66000, 9.
38.69000, 10.
38.72000, 2.
38.75000, 12.
38.78000, 11.
38.81000, 8.
38.84000, 4.
38.87000, 10.
38.90000, 9.
38.93000, 10.
38.96000, 7.
38.99000, 7.
39.02000, 4.
39.05000, 7.
39.08000, 9.
39.11000, 5.
39.14000, 9.
39.17000, 8.
39.20000, 5.
39.23000, 6.
39.26000, 8.
39.29000, 8.
39.32000, 6.
39.35000, 10.
39.38000, 5.
39.41000, 6.
39.44000, 8.
39.47000, 5.
39.50000, 8.
39.53000, 6.
39.56000, 4.
39.59000, 5.
39.62000, 8.
39.65000, 7.
39.68000, 3.
39.71000, 8.
39.74000, 7.
39.77000, 2.
39.80000, 5.
39.83000, 11.
39.86000, 6.
39.89000, 6.
39.92000, 4.
39.95000, 5.
39.98000, 5.
40.01000, 4.
40.04000, 4.
40.07000, 6.
40.10000, 5.
40.13000, 4.
40.16000, 6.
40.19000, 6.
40.22000, 3.
40.25000, 5.
40.28000, 0.
40.31000, 8.
40.34000, 6.
40.37000, 7.
40.40000, 4.
40.43000, 4.
40.46000, 1.
40.49000, 6.
40.52000, 5.
40.55000, 0.
#ENDOFDATA   :