File: sample_data/data/Spectrum value from standard/stds 2/Spectrum 23.txt
#FORMAT      : EMSA/MAS Spectral Data File
#VERSION     : 1.0
#TITLE       : Spectrum 23
#DATE        : 21-AUG-2025
#TIME        : 15:27
#OWNER       : XGT7200
#NPOINTS     : 4096.
#NCOLUMNS    : 1.
#XUNITS      : keV
#YUNITS      : counts
#DATATYPE    : XY
#XPERCHAN    : 0.0100000
#OFFSET      : -0.400000
#SIGNALTYPE  : EDS
#CHOFFSET    : 40.0000
#LIVETIME    : 30
#REALTIME    : 39.572
#BEAMKV      : 50.0000
#PROBECUR    : 682000.
#MAGCAM      : 100.000
#XTILTSTGE   : 0.0
#AZIMANGLE   : 0.0
#ELEVANGLE   : 45.0
#XPOSITION mm: 0.0000
#YPOSITION mm: 0.0000
#ZPOSITION mm: 0.0000
##OXINSTPT   : 4
##OXINSTSTROB: 71.95
#SPECTRUM    : Spectral Data Starts Here
-0.40000, 0.
-0.37000, 0.
-0.34000, 0.
-0.31000, 0.
-0.28000, 0.
-0.25000, 0.
-0.22000, 0.
-0.19000, 0.
-0.16000, 0.
-0.13000, 0.
-0.10000, 0.
-0.07000, 0.
-0.04000, 0.
-0.01000, 0.
0.02000, 0.
0.05000, 0.
0.08000, 0.
0.11000, 0.
0.14000, 0.
0.17000, 0.
0.20000, 0.
0.23000, 0.
0.26000, 0.
0.29000, 0.
0.32000, 0.
0.35000, 0.
0.38000, 9.
0.41000, 23.
0.44000, 47.
0.47000, 30.
0.50000, 42.
0.53000, 51.
0.56000, 40.
0.59000, 31.
0.62000, 36.
0.65000, 33.
0.68000, 41.
0.71000, 39.
0.74000, 36.
0.77000, 37.
0.80000, 26.
0.83000, 36.
0.86000, 31.
0.89000, 37.
0.92000, 51.
0.95000, 46.
0.98000, 38.
1.01000, 52.
1.04000, 37.
1.07000, 47.
1.10000, 40.
1.13000, 39.
1.16000, 30.
1.19000, 57.
1.22000, 66.
1.25000, 74.
1.28000, 93.
1.31000, 60.
1.34000, 41.
1.37000, 52.
1.40000, 128.
1.43000, 288.
1.46000, 683.
1.49000, 861.
1.52000, 745.
1.55000, 378.
1.58000, 180.
1.61000, 121.
1.64000, 280.
1.67000, 1116.
1.70000, 2964.
1.73000, 5013.
1.76000, 5212.
1.79000, 3248.
1.82000, 1412.
1.85000, 479.
1.88000, 231.
1.91000, 97.
1.94000, 63.
1.97000, 80.
2.00000, 87.
2.03000, 109.
2.06000, 72.
2.09000, 45.
2.12000, 41.
2.15000, 27.
2.18000, 24.
2.21000, 25.
2.24000, 43.
2.27000, 60.
2.30000, 77.
2.33000, 65.
2.36000, 47.
2.39000, 48.
2.42000, 44.
2.45000, 33.
2.48000, 38.
2.51000, 37.
2.54000, 58.
2.57000, 66.
2.60000, 93.
2.63000, 205.
2.66000, 348.
2.69000, 469.
2.72000, 451.
2.75000, 335.
2.78000, 234.
2.81000, 221.
2.84000, 216.
2.87000, 204.
2.90000, 165.
2.93000, 99.
2.96000, 83.
2.99000, 64.
3.02000, 45.
3.05000, 43.
3.08000, 32.
3.11000, 31.
3.14000, 33.
3.17000, 46.
3.20000, 86.
3.23000, 192.
3.26000, 392.
3.29000, 675.
3.32000, 829.
3.35000, 638.
3.38000, 356.
3.41000, 144.
3.44000, 74.
3.47000, 53.
3.50000, 61.
3.53000, 82.
3.56000, 172.
3.59000, 366.
3.62000, 714.
3.65000, 1274.
3.68000, 1714.
3.71000, 1839.
3.74000, 1241.
3.77000, 633.
3.80000, 225.
3.83000, 80.
3.86000, 50.
3.89000, 44.
3.92000, 69.
3.95000, 158.
3.98000, 220.
4.01000, 288.
4.04000, 313.
4.07000, 170.
4.10000, 94.
4.13000, 76.
4.16000, 35.
4.19000, 31.
4.22000, 23.
4.25000, 29.
4.28000, 28.
4.31000, 34.
4.34000, 38.
4.37000, 46.
4.40000, 118.
4.43000, 217.
4.46000, 415.
4.49000, 562.
4.52000, 550.
4.55000, 445.
4.58000, 297.
4.61000, 177.
4.64000, 144.
4.67000, 122.
4.70000, 85.
4.73000, 63.
4.76000, 64.
4.79000, 74.
4.82000, 80.
4.85000, 110.
4.88000, 145.
4.91000, 160.
4.94000, 134.
4.97000, 145.
5.00000, 101.
5.03000, 80.
5.06000, 59.
5.09000, 59.
5.12000, 51.
5.15000, 55.
5.18000, 51.
5.21000, 74.
5.24000, 57.
5.27000, 71.
5.30000, 62.
5.33000, 73.
5.36000, 71.
5.39000, 78.
5.42000, 81.
5.45000, 70.
5.48000, 69.
5.51000, 69.
5.54000, 55.
5.57000, 62.
5.60000, 50.
5.63000, 60.
5.66000, 60.
5.69000, 54.
5.72000, 63.
5.75000, 61.
5.78000, 113.
5.81000, 151.
5.84000, 258.
5.87000, 326.
5.90000, 375.
5.93000, 305.
5.96000, 220.
5.99000, 141.
6.02000, 102.
6.05000, 70.
6.08000, 82.
6.11000, 85.
6.14000, 106.
6.17000, 128.
6.20000, 208.
6.23000, 514.
6.26000, 1401.
6.29000, 3739.
6.32000, 7584.
6.35000, 12574.
6.38000, 16381.
6.41000, 17048.
6.44000, 14003.
6.47000, 8927.
6.50000, 4659.
6.53000, 1887.
6.56000, 718.
6.59000, 240.
6.62000, 135.
6.65000, 111.
6.68000, 97.
6.71000, 94.
6.74000, 127.
6.77000, 107.
6.80000, 95.
6.83000, 160.
6.86000, 173.
6.89000, 239.
6.92000, 498.
6.95000, 851.
6.98000, 1449.
7.01000, 2306.
7.04000, 2688.
7.07000, 2646.
7.10000, 2162.
7.13000, 1461.
7.16000, 782.
7.19000, 359.
7.22000, 173.
7.25000, 86.
7.28000, 72.
7.31000, 83.
7.34000, 61.
7.37000, 87.
7.40000, 84.
7.43000, 100.
7.46000, 80.
7.49000, 94.
7.52000, 68.
7.55000, 82.
7.58000, 89.
7.61000, 81.
7.64000, 65.
7.67000, 91.
7.70000, 80.
7.73000, 74.
7.76000, 76.
7.79000, 95.
7.82000, 89.
7.85000, 111.
7.88000, 109.
7.91000, 94.
7.94000, 119.
7.97000, 135.
8.00000, 124.
8.03000, 124.
8.06000, 117.
8.09000, 142.
8.12000, 138.
8.15000, 130.
8.18000, 137.
8.21000, 106.
8.24000, 87.
8.27000, 96.
8.30000, 82.
8.33000, 98.
8.36000, 96.
8.39000, 105.
8.42000, 96.
8.45000, 90.
8.48000, 87.
8.51000, 126.
8.54000, 184.
8.57000, 219.
8.60000, 229.
8.63000, 247.
8.66000, 246.
8.69000, 185.
8.72000, 174.
8.75000, 147.
8.78000, 121.
8.81000, 127.
8.84000, 113.
8.87000, 117.
8.90000, 101.
8.93000, 112.
8.96000, 101.
8.99000, 98.
9.02000, 125.
9.05000, 110.
9.08000, 108.
9.11000, 108.
9.14000, 114.
9.17000, 112.
9.20000, 101.
9.23000, 134.
9.26000, 124.
9.29000, 122.
9.32000, 117.
9.35000, 120.
9.38000, 109.
9.41000, 109.
9.44000, 107.
9.47000, 123.
9.50000, 113.
9.53000, 119.
9.56000, 126.
9.59000, 118.
9.62000, 130.
9.65000, 117.
9.68000, 116.
9.71000, 121.
9.74000, 116.
9.77000, 111.
9.80000, 106.
9.83000, 125.
9.86000, 123.
9.89000, 138.
9.92000, 116.
9.95000, 112.
9.98000, 98.
10.01000, 104.
10.04000, 104.
10.07000, 130.
10.10000, 116.
10.13000, 117.
10.16000, 134.
10.19000, 113.
10.22000, 117.
10.25000, 118.
10.28000, 114.
10.31000, 125.
10.34000, 98.
10.37000, 133.
10.40000, 141.
10.43000, 132.
10.46000, 146.
10.49000, 163.
10.52000, 168.
10.55000, 167.
10.58000, 146.
10.61000, 143.
10.64000, 166.
10.67000, 115.
10.70000, 128.
10.73000, 117.
10.76000, 145.
10.79000, 113.
10.82000, 113.
10.85000, 133.
10.88000, 141.
10.91000, 130.
10.94000, 129.
10.97000, 129.
11.00000, 108.
11.03000, 132.
11.06000, 149.
11.09000, 122.
11.12000, 136.
11.15000, 132.
11.18000, 116.
11.21000, 133.
11.24000, 120.
11.27000, 124.
11.30000, 120.
11.33000, 133.
11.36000, 116.
11.39000, 128.
11.42000, 142.
11.45000, 126.
11.48000, 135.
11.51000, 119.
11.54000, 128.
11.57000, 113.
11.60000, 146.
11.63000, 144.
11.66000, 134.
11.69000, 137.
11.72000, 119.
11.75000, 121.
11.78000, 126.
11.81000, 141.
11.84000, 125.
11.87000, 105.
11.90000, 143.
11.93000, 127.
11.96000, 111.
11.99000, 125.
12.02000, 158.
12.05000, 138.
12.08000, 126.
12.11000, 132.
12.14000, 127.
12.17000, 122.
12.20000, 110.
12.23000, 123.
12.26000, 133.
12.29000, 147.
12.32000, 136.
12.35000, 131.
12.38000, 116.
12.41000, 135.
12.44000, 129.
12.47000, 143.
12.50000, 153.
12.53000, 151.
12.56000, 151.
12.59000, 146.
12.62000, 133.
12.65000, 165.
12.68000, 154.
12.71000, 171.
12.74000, 184.
12.77000, 206.
12.80000, 204.
12.83000, 182.
12.86000, 168.
12.89000, 163.
12.92000, 163.
12.95000, 164.
12.98000, 144.
13.01000, 128.
13.04000, 130.
13.07000, 138.
13.10000, 159.
13.13000, 158.
13.16000, 163.
13.19000, 141.
13.22000, 163.
13.25000, 173.
13.28000, 221.
13.31000, 198.
13.34000, 244.
13.37000, 232.
13.40000, 221.
13.43000, 219.
13.46000, 197.
13.49000, 182.
13.52000, 172.
13.55000, 166.
13.58000, 134.
13.61000, 167.
13.64000, 145.
13.67000, 140.
13.70000, 134.
13.73000, 138.
13.76000, 135.
13.79000, 128.
13.82000, 133.
13.85000, 144.
13.88000, 160.
13.91000, 162.
13.94000, 181.
13.97000, 223.
14.00000, 290.
14.03000, 365.
14.06000, 398.
14.09000, 503.
14.12000, 509.
14.15000, 516.
14.18000, 444.
14.21000, 389.
14.24000, 314.
14.27000, 261.
14.30000, 196.
14.33000, 193.
14.36000, 159.
14.39000, 132.
14.42000, 137.
14.45000, 106.
14.48000, 143.
14.51000, 130.
14.54000, 121.
14.57000, 130.
14.60000, 135.
14.63000, 129.
14.66000, 133.
14.69000, 153.
14.72000, 152.
14.75000, 136.
14.78000, 149.
14.81000, 149.
14.84000, 165.
14.87000, 171.
14.90000, 191.
14.93000, 171.
14.96000, 192.
14.99000, 172.
15.02000, 156.
15.05000, 119.
15.08000, 155.
15.11000, 158.
15.14000, 127.
15.17000, 135.
15.20000, 133.
15.23000, 143.
15.26000, 141.
15.29000, 129.
15.32000, 148.
15.35000, 132.
15.38000, 145.
15.41000, 142.
15.44000, 148.
15.47000, 148.
15.50000, 142.
15.53000, 148.
15.56000, 168.
15.59000, 223.
15.62000, 224.
15.65000, 296.
15.68000, 348.
15.71000, 345.
15.74000, 384.
15.77000, 350.
15.80000, 370.
15.83000, 275.
15.86000, 308.
15.89000, 247.
15.92000, 209.
15.95000, 160.
15.98000, 178.
16.01000, 152.
16.04000, 146.
16.07000, 150.
16.10000, 148.
16.13000, 166.
16.16000, 144.
16.19000, 139.
16.22000, 133.
16.25000, 159.
16.28000, 138.
16.31000, 120.
16.34000, 128.
16.37000, 113.
16.40000, 121.
16.43000, 139.
16.46000, 149.
16.49000, 170.
16.52000, 157.
16.55000, 137.
16.58000, 152.
16.61000, 175.
16.64000, 152.
16.67000, 178.
16.70000, 144.
16.73000, 140.
16.76000, 126.
16.79000, 144.
16.82000, 149.
16.85000, 144.
16.88000, 129.
16.91000, 110.
16.94000, 132.
16.97000, 146.
17.00000, 138.
17.03000, 120.
17.06000, 134.
17.09000, 123.
17.12000, 124.
17.15000, 140.
17.18000, 141.
17.21000, 124.
17.24000, 166.
17.27000, 168.
17.30000, 167.
17.33000, 148.
17.36000, 137.
17.39000, 185.
17.42000, 152.
17.45000, 184.
17.48000, 157.
17.51000, 180.
17.54000, 162.
17.57000, 188.
17.60000, 199.
17.63000, 204.
17.66000, 169.
17.69000, 194.
17.72000, 190.
17.75000, 189.
17.78000, 180.
17.81000, 182.
17.84000, 182.
17.87000, 192.
17.90000, 182.
17.93000, 192.
17.96000, 219.
17.99000, 201.
18.02000, 198.
18.05000, 218.
18.08000, 212.
18.11000, 220.
18.14000, 233.
18.17000, 239.
18.20000, 249.
18.23000, 287.
18.26000, 306.
18.29000, 285.
18.32000, 306.
18.35000, 379.
18.38000, 354.
18.41000, 410.
18.44000, 469.
18.47000, 496.
18.50000, 495.
18.53000, 511.
18.56000, 641.
18.59000, 677.
18.62000, 704.
18.65000, 720.
18.68000, 794.
18.71000, 837.
18.74000, 813.
18.77000, 843.
18.80000, 805.
18.83000, 786.
18.86000, 838.
18.89000, 736.
18.92000, 749.
18.95000, 710.
18.98000, 663.
19.01000, 648.
19.04000, 602.
19.07000, 558.
19.10000, 525.
19.13000, 454.
19.16000, 429.
19.19000, 379.
19.22000, 348.
19.25000, 343.
19.28000, 292.
19.31000, 262.
19.34000, 232.
19.37000, 269.
19.40000, 226.
19.43000, 251.
19.46000, 225.
19.49000, 183.
19.52000, 208.
19.55000, 200.
19.58000, 195.
19.61000, 172.
19.64000, 174.
19.67000, 160.
19.70000, 167.
19.73000, 167.
19.76000, 143.
19.79000, 168.
19.82000, 142.
19.85000, 160.
19.88000, 191.
19.91000, 226.
19.94000, 235.
19.97000, 304.
20.00000, 336.
20.03000, 368.
20.06000, 414.
20.09000, 503.
20.12000, 510.
20.15000, 538.
20.18000, 489.
20.21000, 474.
20.24000, 410.
20.27000, 384.
20.30000, 280.
20.33000, 233.
20.36000, 213.
20.39000, 206.
20.42000, 165.
20.45000, 149.
20.48000, 154.
20.51000, 151.
20.54000, 123.
20.57000, 161.
20.60000, 156.
20.63000, 184.
20.66000, 154.
20.69000, 164.
20.72000, 182.
20.75000, 195.
20.78000, 209.
20.81000, 219.
20.84000, 205.
20.87000, 221.
20.90000, 199.
20.93000, 251.
20.96000, 227.
20.99000, 210.
21.02000, 229.
21.05000, 198.
21.08000, 221.
21.11000, 219.
21.14000, 200.
21.17000, 177.
21.20000, 200.
21.23000, 185.
21.26000, 177.
21.29000, 220.
21.32000, 170.
21.35000, 176.
21.38000, 149.
21.41000, 176.
21.44000, 149.
21.47000, 139.
21.50000, 146.
21.53000, 122.
21.56000, 111.
21.59000, 114.
21.62000, 137.
21.65000, 112.
21.68000, 136.
21.71000, 98.
21.74000, 97.
21.77000, 126.
21.80000, 86.
21.83000, 116.
21.86000, 96.
21.89000, 103.
21.92000, 93.
21.95000, 111.
21.98000, 77.
22.01000, 85.
22.04000, 98.
22.07000, 87.
22.10000, 67.
22.13000, 83.
22.16000, 78.
22.19000, 93.
22.22000, 79.
22.25000, 94.
22.28000, 69.
22.31000, 85.
22.34000, 90.
22.37000, 65.
22.40000, 60.
22.43000, 62.
22.46000, 87.
22.49000, 94.
22.52000, 93.
22.55000, 99.
22.58000, 129.
22.61000, 131.
22.64000, 125.
22.67000, 117.
22.70000, 124.
22.73000, 118.
22.76000, 105.
22.79000, 104.
22.82000, 100.
22.85000, 105.
22.88000, 81.
22.91000, 62.
22.94000, 63.
22.97000, 62.
23.00000, 84.
23.03000, 54.
23.06000, 74.
23.09000, 77.
23.12000, 72.
23.15000, 81.
23.18000, 68.
23.21000, 70.
23.24000, 68.
23.27000, 65.
23.30000, 62.
23.33000, 51.
23.36000, 50.
23.39000, 59.
23.42000, 65.
23.45000, 56.
23.48000, 72.
23.51000, 63.
23.54000, 59.
23.57000, 56.
23.60000, 57.
23.63000, 65.
23.66000, 62.
23.69000, 69.
23.72000, 75.
23.75000, 52.
23.78000, 49.
23.81000, 56.
23.84000, 68.
23.87000, 69.
23.90000, 54.
23.93000, 56.
23.96000, 56.
23.99000, 54.
24.02000, 65.
24.05000, 51.
24.08000, 55.
24.11000, 60.
24.14000, 75.
24.17000, 61.
24.20000, 55.
24.23000, 57.
24.26000, 52.
24.29000, 68.
24.32000, 64.
24.35000, 60.
24.38000, 61.
24.41000, 60.
24.44000, 51.
24.47000, 67.
24.50000, 43.
24.53000, 45.
24.56000, 60.
24.59000, 59.
24.62000, 60.
24.65000, 59.
24.68000, 60.
24.71000, 53.
24.74000, 57.
24.77000, 73.
24.80000, 55.
24.83000, 56.
24.86000, 54.
24.89000, 55.
24.92000, 70.
24.95000, 73.
24.98000, 60.
25.01000, 67.
25.04000, 63.
25.07000, 70.
25.10000, 52.
25.13000, 65.
25.16000, 65.
25.19000, 62.
25.22000, 71.
25.25000, 53.
25.28000, 60.
25.31000, 59.
25.34000, 43.
25.37000, 46.
25.40000, 55.
25.43000, 58.
25.46000, 71.
25.49000, 63.
25.52000, 65.
25.55000, 52.
25.58000, 53.
25.61000, 44.
25.64000, 58.
25.67000, 61.
25.70000, 46.
25.73000, 38.
25.76000, 54.
25.79000, 46.
25.82000, 57.
25.85000, 50.
25.88000, 58.
25.91000, 54.
25.94000, 49.
25.97000, 51.
26.00000, 51.
26.03000, 59.
26.06000, 56.
26.09000, 54.
26.12000, 47.
26.15000, 59.
26.18000, 53.
26.21000, 46.
26.24000, 53.
26.27000, 50.
26.30000, 54.
26.33000, 50.
26.36000, 51.
26.39000, 54.
26.42000, 40.
26.45000, 54.
26.48000, 46.
26.51000, 51.
26.54000, 44.
26.57000, 51.
26.60000, 63.
26.63000, 57.
26.66000, 46.
26.69000, 51.
26.72000, 41.
26.75000, 49.
26.78000, 55.
26.81000, 55.
26.84000, 39.
26.87000, 51.
26.90000, 63.
26.93000, 27.
26.96000, 66.
26.99000, 57.
27.02000, 43.
27.05000, 49.
27.08000, 49.
27.11000, 49.
27.14000, 48.
27.17000, 55.
27.20000, 46.
27.23000, 64.
27.26000, 39.
27.29000, 52.
27.32000, 58.
27.35000, 42.
27.38000, 38.
27.41000, 41.
27.44000, 55.
27.47000, 49.
27.50000, 50.
27.53000, 38.
27.56000, 54.
27.59000, 34.
27.62000, 42.
27.65000, 46.
27.68000, 47.
27.71000, 47.
27.74000, 33.
27.77000, 39.
27.80000, 40.
27.83000, 32.
27.86000, 56.
27.89000, 39.
27.92000, 37.
27.95000, 53.
27.98000, 42.
28.01000, 44.
28.04000, 51.
28.07000, 46.
28.10000, 35.
28.13000, 46.
28.16000, 34.
28.19000, 35.
28.22000, 40.
28.25000, 40.
28.28000, 36.
28.31000, 41.
28.34000, 43.
28.37000, 42.
28.40000, 37.
28.43000, 37.
28.46000, 34.
28.49000, 36.
28.52000, 41.
28.55000, 39.
28.58000, 43.
28.61000, 39.
28.64000, 33.
28.67000, 29.
28.70000, 47.
28.73000, 34.
28.76000, 44.
28.79000, 40.
28.82000, 34.
28.85000, 43.
28.88000, 39.
28.91000, 46.
28.94000, 34.
28.97000, 41.
29.00000, 35.
29.03000, 43.
29.06000, 46.
29.09000, 32.
29.12000, 34.
29.15000, 37.
29.18000, 34.
29.21000, 36.
29.24000, 35.
29.27000, 35.
29.30000, 37.
29.33000, 33.
29.36000, 35.
29.39000, 34.
29.42000, 26.
29.45000, 38.
29.48000, 26.
29.51000, 26.
29.54000, 35.
29.57000, 40.
29.60000, 34.
29.63000, 39.
29.66000, 25.
29.69000, 33.
29.72000, 36.
29.75000, 29.
29.78000, 42.
29.81000, 33.
29.84000, 34.
29.87000, 32.
29.90000, 48.
29.93000, 32.
29.96000, 29.
29.99000, 32.
30.02000, 33.
30.05000, 33.
30.08000, 38.
30.11000, 32.
30.14000, 34.
30.17000, 40.
30.20000, 43.
30.23000, 22.
30.26000, 32.
30.29000, 34.
30.32000, 27.
30.35000, 37.
30.38000, 39.
30.41000, 37.
30.44000, 36.
30.47000, 26.
30.50000, 24.
30.53000, 30.
30.56000, 30.
30.59000, 32.
30.62000, 29.
30.65000, 40.
30.68000, 35.
30.71000, 21.
30.74000, 39.
30.77000, 29.
30.80000, 28.
30.83000, 34.
30.86000, 21.
30.89000, 27.
30.92000, 26.
30.95000, 33.
30.98000, 19.
31.01000, 28.
31.04000, 41.
31.07000, 26.
31.10000, 30.
31.13000, 27.
31.16000, 26.
31.19000, 36.
31.22000, 35.
31.25000, 22.
31.28000, 30.
31.31000, 27.
31.34000, 31.
31.37000, 32.
31.40000, 20.
31.43000, 24.
31.46000, 21.
31.49000, 28.
31.52000, 43.
31.55000, 29.
31.58000, 38.
31.61000, 25.
31.64000, 33.
31.67000, 28.
31.70000, 38.
31.73000, 27.
31.76000, 26.
31.79000, 24.
31.82000, 31.
31.85000, 35.
31.88000, 28.
31.91000, 20.
31.94000, 31.
31.97000, 24.
32.00000, 29.
32.03000, 39.
32.06000, 26.
32.09000, 28.
32.12000, 23.
32.15000, 23.
32.18000, 33.
32.21000, 25.
32.24000, 20.
32.27000, 27.
32.30000, 26.
32.33000, 27.
32.36000, 27.
32.39000, 22.
32.42000, 29.
32.45000, 21.
32.48000, 20.
32.51000, 25.
32.54000, 21.
32.57000, 17.
32.60000, 21.
32.63000, 24.
32.66000, 33.
32.69000, 20.
32.72000, 21.
32.75000, 22.
32.78000, 18.
32.81000, 26.
32.84000, 22.
32.87000, 25.
32.90000, 25.
32.93000, 25.
32.96000, 29.
32.99000, 17.
33.02000, 26.
33.05000, 27.
33.08000, 19.
33.11000, 28.
33.14000, 19.
33.17000, 18.
33.20000, 21.
33.23000, 22.
33.26000, 20.
33.29000, 23.
33.32000, 21.
33.35000, 16.
33.38000, 29.
33.41000, 23.
33.44000, 21.
33.47000, 20.
33.50000, 24.
33.53000, 20.
33.56000, 21.
33.59000, 24.
33.62000, 23.
33.65000, 31.
33.68000, 23.
33.71000, 13.
33.74000, 15.
33.77000, 25.
33.80000, 19.
33.83000, 29.
33.86000, 20.
33.89000, 17.
33.92000, 20.
33.95000, 27.
33.98000, 18.
34.01000, 17.
34.04000, 14.
34.07000, 18.
34.10000, 20.
34.13000, 16.
34.16000, 19.
34.19000, 17.
34.22000, 13.
34.25000, 15.
34.28000, 17.
34.31000, 19.
34.34000, 25.
34.37000, 24.
34.40000, 19.
34.43000, 19.
34.46000, 16.
34.49000, 16.
34.52000, 16.
34.55000, 11.
34.58000, 15.
34.61000, 24.
34.64000, 16.
34.67000, 11.
34.70000, 18.
34.73000, 20.
34.76000, 16.
34.79000, 9.
34.82000, 19.
34.85000, 21.
34.88000, 15.
34.91000, 17.
34.94000, 18.
34.97000, 13.
35.00000, 10.
35.03000, 18.
35.06000, 10.
35.09000, 14.
35.12000, 8.
35.15000, 11.
35.18000, 19.
35.21000, 11.
35.24000, 14.
35.27000, 17.
35.30000, 15.
35.33000, 19.
35.36000, 12.
35.39000, 17.
35.42000, 16.
35.45000, 13.
35.48000, 8.
35.51000, 10.
35.54000, 10.
35.57000, 10.
35.60000, 9.
35.63000, 15.
35.66000, 16.
35.69000, 12.
35.72000, 15.
35.75000, 11.
35.78000, 12.
35.81000, 16.
35.84000, 16.
35.87000, 22.
35.90000, 7.
35.93000, 9.
35.96000, 13.
35.99000, 15.
36.02000, 11.
36.05000, 20.
36.08000, 13.
36.11000, 18.
36.14000, 4.
36.17000, 10.
36.20000, 10.
36.23000, 16.
36.26000, 7.
36.29000, 18.
36.32000, 14.
36.35000, 10.
36.38000, 10.
36.41000, 10.
36.44000, 12.
36.47000, 13.
36.50000, 19.
36.53000, 14.
36.56000, 10.
36.59000, 9.
36.62000, 7.
36.65000, 13.
36.68000, 16.
36.71000, 12.
36.74000, 14.
36.77000, 14.
36.80000, 13.
36.83000, 3.
36.86000, 8.
36.89000, 14.
36.92000, 9.
36.95000, 16.
36.98000, 12.
37.01000, 9.
37.04000, 6.
37.07000, 8.
37.10000, 10.
37.13000, 9.
37.16000, 17.
37.19000, 4.
37.22000, 9.
37.25000, 13.
37.28000, 10.
37.31000, 12.
37.34000, 8.
37.37000, 7.
37.40000, 11.
37.43000, 7.
37.46000, 10.
37.49000, 9.
37.52000, 8.
37.55000, 8.
37.58000, 9.
37.61000, 7.
37.64000, 12.
37.67000, 10.
37.70000, 8.
37.73000, 6.
37.76000, 17.
37.79000, 9.
37.82000, 11.
37.85000, 10.
37.88000, 13.
37.91000, 10.
37.94000, 12.
37.97000, 8.
38.00000, 9.
38.03000, 6.
38.06000, 13.
38.09000, 8.
38.12000, 11.
38.15000, 10.
38.18000, 8.
38.21000, 11.
38.24000, 6.
38.27000, 10.
38.30000, 15.
38.33000, 6.
38.36000, 9.
38.39000, 7.
38.42000, 5.
38.45000, 12.
38.48000, 9.
38.51000, 5.
38.54000, 7.
38.57000, 7.
38.60000, 10.
38.63000, 10.
38.66000, 4.
38.69000, 9.
38.72000, 9.
38.75000, 7.
38.78000, 4.
38.81000, 7.
38.84000, 5.
38.87000, 9.
38.90000, 4.
38.93000, 9.
38.96000, 9.
38.99000, 6.
39.02000, 8.
39.05000, 8.
39.08000, 5.
39.11000, 8.
39.14000, 7.
39.17000, 2.
39.20000, 8.
39.23000, 7.
39.26000, 4.
39.29000, 7.
39.32000, 6.
39.35000, 6.
39.38000, 4.
39.41000, 7.
39.44000, 8.
39.47000, 8.
39.50000, 3.
39.53000, 5.
39.56000, 7.
39.59000, 8.
39.62000, 5.
39.65000, 5.
39.68000, 7.
39.71000, 7.
39.74000, 3.
39.77000, 3.
39.80000, 4.
39.83000, 4.
39.86000, 1.
39.89000, 4.
39.92000, 5.
39.95000, 6.
39.98000, 4.
40.01000, 5.
40.04000, 3.
40.07000, 2.
40.10000, 3.
40.13000, 3.
40.16000, 4.
40.19000, 3.
40.22000, 5.
40.25000, 5.
40.28000, 4.
40.31000, 2.
40.34000, 6.
40.37000, 4.
40.40000, 3.
40.43000, 3.
40.46000, 3.
40.49000, 2.
40.52000, 3.
40.55000, 0.
#ENDOFDATA   :