File: sample_data/data/Spectrum value from standard/stds 2/Spectrum 22.txt
#FORMAT      : EMSA/MAS Spectral Data File
#VERSION     : 1.0
#TITLE       : Spectrum 22
#DATE        : 21-AUG-2025
#TIME        : 15:26
#OWNER       : XGT7200
#NPOINTS     : 4096.
#NCOLUMNS    : 1.
#XUNITS      : keV
#YUNITS      : counts
#DATATYPE    : XY
#XPERCHAN    : 0.0100000
#OFFSET      : -0.400000
#SIGNALTYPE  : EDS
#CHOFFSET    : 40.0000
#LIVETIME    : 30
#REALTIME    : 39.7843
#BEAMKV      : 50.0000
#PROBECUR    : 692000.
#MAGCAM      : 100.000
#XTILTSTGE   : 0.0
#AZIMANGLE   : 0.0
#ELEVANGLE   : 45.0
#XPOSITION mm: 0.0000
#YPOSITION mm: 0.0000
#ZPOSITION mm: 0.0000
##OXINSTPT   : 4
##OXINSTSTROB: 71.84
#SPECTRUM    : Spectral Data Starts Here
-0.40000, 0.
-0.37000, 0.
-0.34000, 0.
-0.31000, 0.
-0.28000, 0.
-0.25000, 0.
-0.22000, 0.
-0.19000, 0.
-0.16000, 0.
-0.13000, 0.
-0.10000, 0.
-0.07000, 0.
-0.04000, 0.
-0.01000, 0.
0.02000, 0.
0.05000, 0.
0.08000, 0.
0.11000, 0.
0.14000, 0.
0.17000, 0.
0.20000, 0.
0.23000, 0.
0.26000, 0.
0.29000, 0.
0.32000, 0.
0.35000, 2.
0.38000, 15.
0.41000, 25.
0.44000, 37.
0.47000, 51.
0.50000, 35.
0.53000, 41.
0.56000, 34.
0.59000, 46.
0.62000, 50.
0.65000, 40.
0.68000, 45.
0.71000, 36.
0.74000, 38.
0.77000, 40.
0.80000, 44.
0.83000, 26.
0.86000, 40.
0.89000, 38.
0.92000, 40.
0.95000, 40.
0.98000, 42.
1.01000, 47.
1.04000, 52.
1.07000, 43.
1.10000, 48.
1.13000, 28.
1.16000, 34.
1.19000, 58.
1.22000, 76.
1.25000, 90.
1.28000, 90.
1.31000, 52.
1.34000, 52.
1.37000, 42.
1.40000, 109.
1.43000, 291.
1.46000, 618.
1.49000, 914.
1.52000, 758.
1.55000, 378.
1.58000, 171.
1.61000, 109.
1.64000, 259.
1.67000, 1113.
1.70000, 3132.
1.73000, 5055.
1.76000, 5323.
1.79000, 3394.
1.82000, 1411.
1.85000, 492.
1.88000, 214.
1.91000, 101.
1.94000, 68.
1.97000, 85.
2.00000, 86.
2.03000, 77.
2.06000, 59.
2.09000, 42.
2.12000, 29.
2.15000, 29.
2.18000, 21.
2.21000, 28.
2.24000, 35.
2.27000, 59.
2.30000, 77.
2.33000, 76.
2.36000, 55.
2.39000, 38.
2.42000, 36.
2.45000, 35.
2.48000, 35.
2.51000, 32.
2.54000, 33.
2.57000, 47.
2.60000, 102.
2.63000, 206.
2.66000, 352.
2.69000, 475.
2.72000, 455.
2.75000, 343.
2.78000, 260.
2.81000, 264.
2.84000, 268.
2.87000, 227.
2.90000, 147.
2.93000, 112.
2.96000, 85.
2.99000, 72.
3.02000, 45.
3.05000, 23.
3.08000, 31.
3.11000, 24.
3.14000, 37.
3.17000, 50.
3.20000, 84.
3.23000, 206.
3.26000, 426.
3.29000, 701.
3.32000, 818.
3.35000, 650.
3.38000, 416.
3.41000, 160.
3.44000, 57.
3.47000, 60.
3.50000, 75.
3.53000, 100.
3.56000, 204.
3.59000, 328.
3.62000, 727.
3.65000, 1261.
3.68000, 1741.
3.71000, 1625.
3.74000, 1180.
3.77000, 649.
3.80000, 218.
3.83000, 101.
3.86000, 49.
3.89000, 42.
3.92000, 78.
3.95000, 161.
3.98000, 217.
4.01000, 302.
4.04000, 257.
4.07000, 183.
4.10000, 100.
4.13000, 49.
4.16000, 23.
4.19000, 30.
4.22000, 30.
4.25000, 29.
4.28000, 33.
4.31000, 30.
4.34000, 30.
4.37000, 71.
4.40000, 102.
4.43000, 206.
4.46000, 359.
4.49000, 570.
4.52000, 592.
4.55000, 497.
4.58000, 300.
4.61000, 186.
4.64000, 124.
4.67000, 142.
4.70000, 93.
4.73000, 84.
4.76000, 59.
4.79000, 72.
4.82000, 93.
4.85000, 111.
4.88000, 102.
4.91000, 147.
4.94000, 134.
4.97000, 124.
5.00000, 105.
5.03000, 67.
5.06000, 61.
5.09000, 56.
5.12000, 58.
5.15000, 63.
5.18000, 59.
5.21000, 59.
5.24000, 61.
5.27000, 67.
5.30000, 60.
5.33000, 69.
5.36000, 60.
5.39000, 89.
5.42000, 87.
5.45000, 69.
5.48000, 76.
5.51000, 59.
5.54000, 52.
5.57000, 57.
5.60000, 56.
5.63000, 59.
5.66000, 50.
5.69000, 61.
5.72000, 44.
5.75000, 61.
5.78000, 93.
5.81000, 154.
5.84000, 212.
5.87000, 290.
5.90000, 309.
5.93000, 277.
5.96000, 228.
5.99000, 164.
6.02000, 90.
6.05000, 81.
6.08000, 83.
6.11000, 99.
6.14000, 98.
6.17000, 139.
6.20000, 239.
6.23000, 495.
6.26000, 1426.
6.29000, 3568.
6.32000, 7530.
6.35000, 12685.
6.38000, 16579.
6.41000, 17005.
6.44000, 14039.
6.47000, 8911.
6.50000, 4593.
6.53000, 1934.
6.56000, 723.
6.59000, 286.
6.62000, 161.
6.65000, 117.
6.68000, 105.
6.71000, 116.
6.74000, 116.
6.77000, 105.
6.80000, 138.
6.83000, 138.
6.86000, 191.
6.89000, 259.
6.92000, 440.
6.95000, 899.
6.98000, 1516.
7.01000, 2188.
7.04000, 2769.
7.07000, 2673.
7.10000, 2136.
7.13000, 1418.
7.16000, 787.
7.19000, 372.
7.22000, 160.
7.25000, 104.
7.28000, 85.
7.31000, 86.
7.34000, 71.
7.37000, 50.
7.40000, 66.
7.43000, 101.
7.46000, 86.
7.49000, 91.
7.52000, 100.
7.55000, 82.
7.58000, 80.
7.61000, 67.
7.64000, 67.
7.67000, 83.
7.70000, 85.
7.73000, 85.
7.76000, 78.
7.79000, 85.
7.82000, 86.
7.85000, 95.
7.88000, 104.
7.91000, 109.
7.94000, 112.
7.97000, 140.
8.00000, 128.
8.03000, 141.
8.06000, 131.
8.09000, 139.
8.12000, 158.
8.15000, 123.
8.18000, 107.
8.21000, 144.
8.24000, 124.
8.27000, 91.
8.30000, 94.
8.33000, 105.
8.36000, 78.
8.39000, 115.
8.42000, 102.
8.45000, 101.
8.48000, 132.
8.51000, 135.
8.54000, 169.
8.57000, 192.
8.60000, 252.
8.63000, 247.
8.66000, 224.
8.69000, 215.
8.72000, 152.
8.75000, 130.
8.78000, 146.
8.81000, 119.
8.84000, 111.
8.87000, 120.
8.90000, 123.
8.93000, 91.
8.96000, 97.
8.99000, 103.
9.02000, 112.
9.05000, 97.
9.08000, 123.
9.11000, 121.
9.14000, 120.
9.17000, 128.
9.20000, 112.
9.23000, 124.
9.26000, 142.
9.29000, 115.
9.32000, 98.
9.35000, 119.
9.38000, 119.
9.41000, 117.
9.44000, 127.
9.47000, 145.
9.50000, 145.
9.53000, 141.
9.56000, 151.
9.59000, 117.
9.62000, 150.
9.65000, 145.
9.68000, 124.
9.71000, 131.
9.74000, 119.
9.77000, 118.
9.80000, 119.
9.83000, 114.
9.86000, 127.
9.89000, 125.
9.92000, 119.
9.95000, 120.
9.98000, 121.
10.01000, 114.
10.04000, 119.
10.07000, 126.
10.10000, 113.
10.13000, 126.
10.16000, 130.
10.19000, 143.
10.22000, 136.
10.25000, 122.
10.28000, 127.
10.31000, 130.
10.34000, 126.
10.37000, 127.
10.40000, 143.
10.43000, 155.
10.46000, 153.
10.49000, 179.
10.52000, 191.
10.55000, 170.
10.58000, 166.
10.61000, 148.
10.64000, 136.
10.67000, 145.
10.70000, 128.
10.73000, 131.
10.76000, 138.
10.79000, 139.
10.82000, 121.
10.85000, 133.
10.88000, 128.
10.91000, 136.
10.94000, 163.
10.97000, 139.
11.00000, 139.
11.03000, 118.
11.06000, 111.
11.09000, 124.
11.12000, 131.
11.15000, 122.
11.18000, 130.
11.21000, 112.
11.24000, 128.
11.27000, 141.
11.30000, 120.
11.33000, 129.
11.36000, 144.
11.39000, 129.
11.42000, 129.
11.45000, 139.
11.48000, 135.
11.51000, 126.
11.54000, 129.
11.57000, 150.
11.60000, 127.
11.63000, 161.
11.66000, 128.
11.69000, 150.
11.72000, 140.
11.75000, 144.
11.78000, 150.
11.81000, 159.
11.84000, 152.
11.87000, 127.
11.90000, 141.
11.93000, 172.
11.96000, 128.
11.99000, 167.
12.02000, 150.
12.05000, 129.
12.08000, 118.
12.11000, 138.
12.14000, 137.
12.17000, 127.
12.20000, 140.
12.23000, 151.
12.26000, 141.
12.29000, 146.
12.32000, 153.
12.35000, 150.
12.38000, 132.
12.41000, 142.
12.44000, 138.
12.47000, 144.
12.50000, 125.
12.53000, 177.
12.56000, 160.
12.59000, 181.
12.62000, 170.
12.65000, 170.
12.68000, 170.
12.71000, 182.
12.74000, 186.
12.77000, 196.
12.80000, 169.
12.83000, 166.
12.86000, 166.
12.89000, 174.
12.92000, 152.
12.95000, 149.
12.98000, 179.
13.01000, 158.
13.04000, 154.
13.07000, 152.
13.10000, 160.
13.13000, 146.
13.16000, 148.
13.19000, 162.
13.22000, 166.
13.25000, 187.
13.28000, 194.
13.31000, 251.
13.34000, 250.
13.37000, 266.
13.40000, 238.
13.43000, 242.
13.46000, 203.
13.49000, 187.
13.52000, 172.
13.55000, 173.
13.58000, 151.
13.61000, 144.
13.64000, 156.
13.67000, 125.
13.70000, 159.
13.73000, 153.
13.76000, 147.
13.79000, 151.
13.82000, 151.
13.85000, 146.
13.88000, 164.
13.91000, 151.
13.94000, 181.
13.97000, 247.
14.00000, 269.
14.03000, 366.
14.06000, 415.
14.09000, 521.
14.12000, 537.
14.15000, 513.
14.18000, 453.
14.21000, 368.
14.24000, 307.
14.27000, 229.
14.30000, 209.
14.33000, 169.
14.36000, 158.
14.39000, 150.
14.42000, 140.
14.45000, 131.
14.48000, 152.
14.51000, 159.
14.54000, 148.
14.57000, 141.
14.60000, 143.
14.63000, 140.
14.66000, 128.
14.69000, 139.
14.72000, 148.
14.75000, 157.
14.78000, 155.
14.81000, 155.
14.84000, 150.
14.87000, 175.
14.90000, 190.
14.93000, 181.
14.96000, 182.
14.99000, 168.
15.02000, 165.
15.05000, 160.
15.08000, 149.
15.11000, 136.
15.14000, 156.
15.17000, 134.
15.20000, 140.
15.23000, 150.
15.26000, 154.
15.29000, 141.
15.32000, 122.
15.35000, 139.
15.38000, 129.
15.41000, 144.
15.44000, 148.
15.47000, 133.
15.50000, 162.
15.53000, 182.
15.56000, 189.
15.59000, 231.
15.62000, 274.
15.65000, 353.
15.68000, 372.
15.71000, 385.
15.74000, 453.
15.77000, 392.
15.80000, 370.
15.83000, 360.
15.86000, 284.
15.89000, 240.
15.92000, 203.
15.95000, 196.
15.98000, 153.
16.01000, 165.
16.04000, 148.
16.07000, 154.
16.10000, 153.
16.13000, 149.
16.16000, 160.
16.19000, 146.
16.22000, 158.
16.25000, 123.
16.28000, 133.
16.31000, 137.
16.34000, 131.
16.37000, 142.
16.40000, 154.
16.43000, 131.
16.46000, 173.
16.49000, 168.
16.52000, 138.
16.55000, 145.
16.58000, 164.
16.61000, 150.
16.64000, 141.
16.67000, 155.
16.70000, 165.
16.73000, 135.
16.76000, 153.
16.79000, 138.
16.82000, 127.
16.85000, 124.
16.88000, 136.
16.91000, 123.
16.94000, 143.
16.97000, 141.
17.00000, 137.
17.03000, 139.
17.06000, 146.
17.09000, 149.
17.12000, 135.
17.15000, 162.
17.18000, 147.
17.21000, 163.
17.24000, 158.
17.27000, 162.
17.30000, 148.
17.33000, 147.
17.36000, 151.
17.39000, 169.
17.42000, 180.
17.45000, 171.
17.48000, 184.
17.51000, 179.
17.54000, 172.
17.57000, 220.
17.60000, 170.
17.63000, 200.
17.66000, 207.
17.69000, 210.
17.72000, 182.
17.75000, 202.
17.78000, 194.
17.81000, 207.
17.84000, 160.
17.87000, 174.
17.90000, 208.
17.93000, 203.
17.96000, 251.
17.99000, 199.
18.02000, 231.
18.05000, 208.
18.08000, 245.
18.11000, 227.
18.14000, 248.
18.17000, 243.
18.20000, 277.
18.23000, 301.
18.26000, 312.
18.29000, 329.
18.32000, 338.
18.35000, 384.
18.38000, 380.
18.41000, 437.
18.44000, 466.
18.47000, 474.
18.50000, 540.
18.53000, 574.
18.56000, 622.
18.59000, 692.
18.62000, 688.
18.65000, 696.
18.68000, 801.
18.71000, 844.
18.74000, 887.
18.77000, 866.
18.80000, 800.
18.83000, 816.
18.86000, 821.
18.89000, 800.
18.92000, 782.
18.95000, 731.
18.98000, 719.
19.01000, 609.
19.04000, 611.
19.07000, 521.
19.10000, 525.
19.13000, 462.
19.16000, 400.
19.19000, 391.
19.22000, 369.
19.25000, 337.
19.28000, 323.
19.31000, 302.
19.34000, 262.
19.37000, 278.
19.40000, 258.
19.43000, 250.
19.46000, 239.
19.49000, 211.
19.52000, 204.
19.55000, 215.
19.58000, 202.
19.61000, 166.
19.64000, 163.
19.67000, 165.
19.70000, 172.
19.73000, 175.
19.76000, 161.
19.79000, 135.
19.82000, 156.
19.85000, 164.
19.88000, 192.
19.91000, 221.
19.94000, 242.
19.97000, 291.
20.00000, 338.
20.03000, 403.
20.06000, 440.
20.09000, 489.
20.12000, 526.
20.15000, 533.
20.18000, 500.
20.21000, 504.
20.24000, 442.
20.27000, 351.
20.30000, 314.
20.33000, 224.
20.36000, 212.
20.39000, 164.
20.42000, 141.
20.45000, 142.
20.48000, 155.
20.51000, 142.
20.54000, 146.
20.57000, 148.
20.60000, 180.
20.63000, 194.
20.66000, 187.
20.69000, 177.
20.72000, 188.
20.75000, 207.
20.78000, 189.
20.81000, 213.
20.84000, 226.
20.87000, 215.
20.90000, 211.
20.93000, 213.
20.96000, 222.
20.99000, 235.
21.02000, 239.
21.05000, 203.
21.08000, 233.
21.11000, 224.
21.14000, 189.
21.17000, 221.
21.20000, 180.
21.23000, 175.
21.26000, 186.
21.29000, 168.
21.32000, 147.
21.35000, 178.
21.38000, 143.
21.41000, 158.
21.44000, 144.
21.47000, 144.
21.50000, 139.
21.53000, 123.
21.56000, 133.
21.59000, 131.
21.62000, 126.
21.65000, 112.
21.68000, 121.
21.71000, 117.
21.74000, 116.
21.77000, 117.
21.80000, 107.
21.83000, 87.
21.86000, 92.
21.89000, 88.
21.92000, 99.
21.95000, 89.
21.98000, 89.
22.01000, 77.
22.04000, 88.
22.07000, 90.
22.10000, 78.
22.13000, 95.
22.16000, 103.
22.19000, 92.
22.22000, 85.
22.25000, 86.
22.28000, 88.
22.31000, 80.
22.34000, 71.
22.37000, 67.
22.40000, 76.
22.43000, 68.
22.46000, 91.
22.49000, 88.
22.52000, 93.
22.55000, 78.
22.58000, 126.
22.61000, 114.
22.64000, 139.
22.67000, 143.
22.70000, 146.
22.73000, 149.
22.76000, 117.
22.79000, 109.
22.82000, 89.
22.85000, 91.
22.88000, 86.
22.91000, 76.
22.94000, 65.
22.97000, 83.
23.00000, 84.
23.03000, 81.
23.06000, 81.
23.09000, 79.
23.12000, 72.
23.15000, 74.
23.18000, 88.
23.21000, 65.
23.24000, 56.
23.27000, 55.
23.30000, 56.
23.33000, 59.
23.36000, 65.
23.39000, 65.
23.42000, 60.
23.45000, 59.
23.48000, 77.
23.51000, 80.
23.54000, 60.
23.57000, 52.
23.60000, 73.
23.63000, 65.
23.66000, 75.
23.69000, 63.
23.72000, 58.
23.75000, 72.
23.78000, 56.
23.81000, 57.
23.84000, 65.
23.87000, 68.
23.90000, 55.
23.93000, 71.
23.96000, 52.
23.99000, 56.
24.02000, 65.
24.05000, 66.
24.08000, 56.
24.11000, 53.
24.14000, 60.
24.17000, 65.
24.20000, 67.
24.23000, 62.
24.26000, 62.
24.29000, 54.
24.32000, 52.
24.35000, 71.
24.38000, 57.
24.41000, 70.
24.44000, 60.
24.47000, 69.
24.50000, 66.
24.53000, 75.
24.56000, 55.
24.59000, 55.
24.62000, 59.
24.65000, 46.
24.68000, 57.
24.71000, 63.
24.74000, 62.
24.77000, 65.
24.80000, 53.
24.83000, 50.
24.86000, 50.
24.89000, 68.
24.92000, 55.
24.95000, 67.
24.98000, 73.
25.01000, 57.
25.04000, 56.
25.07000, 59.
25.10000, 67.
25.13000, 65.
25.16000, 65.
25.19000, 61.
25.22000, 76.
25.25000, 72.
25.28000, 62.
25.31000, 49.
25.34000, 53.
25.37000, 59.
25.40000, 66.
25.43000, 60.
25.46000, 69.
25.49000, 73.
25.52000, 57.
25.55000, 63.
25.58000, 54.
25.61000, 50.
25.64000, 55.
25.67000, 71.
25.70000, 44.
25.73000, 62.
25.76000, 47.
25.79000, 59.
25.82000, 53.
25.85000, 54.
25.88000, 51.
25.91000, 57.
25.94000, 56.
25.97000, 55.
26.00000, 59.
26.03000, 60.
26.06000, 59.
26.09000, 56.
26.12000, 56.
26.15000, 45.
26.18000, 53.
26.21000, 46.
26.24000, 46.
26.27000, 56.
26.30000, 60.
26.33000, 43.
26.36000, 46.
26.39000, 57.
26.42000, 60.
26.45000, 45.
26.48000, 41.
26.51000, 50.
26.54000, 48.
26.57000, 64.
26.60000, 45.
26.63000, 46.
26.66000, 43.
26.69000, 58.
26.72000, 34.
26.75000, 48.
26.78000, 44.
26.81000, 42.
26.84000, 49.
26.87000, 46.
26.90000, 53.
26.93000, 43.
26.96000, 47.
26.99000, 49.
27.02000, 57.
27.05000, 61.
27.08000, 53.
27.11000, 49.
27.14000, 54.
27.17000, 51.
27.20000, 65.
27.23000, 61.
27.26000, 55.
27.29000, 47.
27.32000, 59.
27.35000, 46.
27.38000, 42.
27.41000, 45.
27.44000, 47.
27.47000, 52.
27.50000, 51.
27.53000, 36.
27.56000, 41.
27.59000, 41.
27.62000, 44.
27.65000, 39.
27.68000, 55.
27.71000, 43.
27.74000, 39.
27.77000, 43.
27.80000, 46.
27.83000, 43.
27.86000, 55.
27.89000, 47.
27.92000, 38.
27.95000, 40.
27.98000, 51.
28.01000, 40.
28.04000, 37.
28.07000, 46.
28.10000, 44.
28.13000, 44.
28.16000, 46.
28.19000, 43.
28.22000, 34.
28.25000, 40.
28.28000, 51.
28.31000, 37.
28.34000, 34.
28.37000, 55.
28.40000, 40.
28.43000, 42.
28.46000, 36.
28.49000, 45.
28.52000, 45.
28.55000, 54.
28.58000, 47.
28.61000, 38.
28.64000, 41.
28.67000, 55.
28.70000, 38.
28.73000, 32.
28.76000, 33.
28.79000, 40.
28.82000, 44.
28.85000, 41.
28.88000, 41.
28.91000, 37.
28.94000, 33.
28.97000, 32.
29.00000, 28.
29.03000, 37.
29.06000, 36.
29.09000, 40.
29.12000, 34.
29.15000, 43.
29.18000, 40.
29.21000, 51.
29.24000, 43.
29.27000, 34.
29.30000, 33.
29.33000, 37.
29.36000, 36.
29.39000, 36.
29.42000, 34.
29.45000, 32.
29.48000, 42.
29.51000, 31.
29.54000, 41.
29.57000, 41.
29.60000, 34.
29.63000, 22.
29.66000, 27.
29.69000, 32.
29.72000, 40.
29.75000, 29.
29.78000, 30.
29.81000, 29.
29.84000, 26.
29.87000, 35.
29.90000, 28.
29.93000, 32.
29.96000, 29.
29.99000, 30.
30.02000, 32.
30.05000, 37.
30.08000, 31.
30.11000, 33.
30.14000, 36.
30.17000, 33.
30.20000, 40.
30.23000, 26.
30.26000, 25.
30.29000, 27.
30.32000, 24.
30.35000, 30.
30.38000, 36.
30.41000, 42.
30.44000, 23.
30.47000, 28.
30.50000, 32.
30.53000, 35.
30.56000, 32.
30.59000, 39.
30.62000, 31.
30.65000, 37.
30.68000, 32.
30.71000, 40.
30.74000, 29.
30.77000, 34.
30.80000, 29.
30.83000, 30.
30.86000, 33.
30.89000, 40.
30.92000, 18.
30.95000, 32.
30.98000, 33.
31.01000, 34.
31.04000, 30.
31.07000, 31.
31.10000, 24.
31.13000, 25.
31.16000, 25.
31.19000, 25.
31.22000, 33.
31.25000, 21.
31.28000, 25.
31.31000, 31.
31.34000, 32.
31.37000, 22.
31.40000, 21.
31.43000, 28.
31.46000, 24.
31.49000, 31.
31.52000, 25.
31.55000, 35.
31.58000, 28.
31.61000, 27.
31.64000, 26.
31.67000, 31.
31.70000, 33.
31.73000, 42.
31.76000, 24.
31.79000, 26.
31.82000, 30.
31.85000, 35.
31.88000, 28.
31.91000, 27.
31.94000, 28.
31.97000, 23.
32.00000, 31.
32.03000, 31.
32.06000, 41.
32.09000, 35.
32.12000, 32.
32.15000, 26.
32.18000, 35.
32.21000, 31.
32.24000, 26.
32.27000, 33.
32.30000, 35.
32.33000, 35.
32.36000, 25.
32.39000, 30.
32.42000, 26.
32.45000, 14.
32.48000, 18.
32.51000, 21.
32.54000, 28.
32.57000, 17.
32.60000, 25.
32.63000, 21.
32.66000, 19.
32.69000, 21.
32.72000, 21.
32.75000, 27.
32.78000, 30.
32.81000, 26.
32.84000, 13.
32.87000, 20.
32.90000, 28.
32.93000, 22.
32.96000, 22.
32.99000, 24.
33.02000, 24.
33.05000, 21.
33.08000, 14.
33.11000, 27.
33.14000, 21.
33.17000, 25.
33.20000, 25.
33.23000, 22.
33.26000, 23.
33.29000, 20.
33.32000, 16.
33.35000, 15.
33.38000, 21.
33.41000, 23.
33.44000, 25.
33.47000, 24.
33.50000, 10.
33.53000, 20.
33.56000, 16.
33.59000, 21.
33.62000, 22.
33.65000, 20.
33.68000, 17.
33.71000, 21.
33.74000, 27.
33.77000, 29.
33.80000, 31.
33.83000, 29.
33.86000, 17.
33.89000, 26.
33.92000, 18.
33.95000, 17.
33.98000, 20.
34.01000, 15.
34.04000, 23.
34.07000, 32.
34.10000, 11.
34.13000, 18.
34.16000, 21.
34.19000, 17.
34.22000, 25.
34.25000, 19.
34.28000, 32.
34.31000, 13.
34.34000, 14.
34.37000, 7.
34.40000, 14.
34.43000, 17.
34.46000, 20.
34.49000, 14.
34.52000, 11.
34.55000, 14.
34.58000, 16.
34.61000, 22.
34.64000, 17.
34.67000, 29.
34.70000, 20.
34.73000, 10.
34.76000, 14.
34.79000, 15.
34.82000, 24.
34.85000, 17.
34.88000, 14.
34.91000, 13.
34.94000, 10.
34.97000, 20.
35.00000, 12.
35.03000, 20.
35.06000, 24.
35.09000, 18.
35.12000, 22.
35.15000, 18.
35.18000, 15.
35.21000, 11.
35.24000, 14.
35.27000, 13.
35.30000, 15.
35.33000, 13.
35.36000, 12.
35.39000, 5.
35.42000, 16.
35.45000, 21.
35.48000, 12.
35.51000, 15.
35.54000, 15.
35.57000, 10.
35.60000, 15.
35.63000, 10.
35.66000, 15.
35.69000, 12.
35.72000, 15.
35.75000, 11.
35.78000, 21.
35.81000, 16.
35.84000, 15.
35.87000, 15.
35.90000, 16.
35.93000, 19.
35.96000, 15.
35.99000, 12.
36.02000, 16.
36.05000, 15.
36.08000, 14.
36.11000, 13.
36.14000, 11.
36.17000, 14.
36.20000, 13.
36.23000, 15.
36.26000, 15.
36.29000, 14.
36.32000, 17.
36.35000, 12.
36.38000, 18.
36.41000, 17.
36.44000, 15.
36.47000, 12.
36.50000, 8.
36.53000, 11.
36.56000, 13.
36.59000, 17.
36.62000, 13.
36.65000, 5.
36.68000, 10.
36.71000, 10.
36.74000, 11.
36.77000, 14.
36.80000, 19.
36.83000, 10.
36.86000, 11.
36.89000, 17.
36.92000, 17.
36.95000, 10.
36.98000, 11.
37.01000, 10.
37.04000, 8.
37.07000, 8.
37.10000, 11.
37.13000, 13.
37.16000, 9.
37.19000, 6.
37.22000, 15.
37.25000, 11.
37.28000, 11.
37.31000, 10.
37.34000, 10.
37.37000, 13.
37.40000, 10.
37.43000, 8.
37.46000, 7.
37.49000, 11.
37.52000, 8.
37.55000, 14.
37.58000, 5.
37.61000, 8.
37.64000, 9.
37.67000, 9.
37.70000, 8.
37.73000, 11.
37.76000, 11.
37.79000, 9.
37.82000, 10.
37.85000, 9.
37.88000, 10.
37.91000, 19.
37.94000, 12.
37.97000, 6.
38.00000, 15.
38.03000, 8.
38.06000, 7.
38.09000, 10.
38.12000, 11.
38.15000, 15.
38.18000, 14.
38.21000, 2.
38.24000, 7.
38.27000, 10.
38.30000, 8.
38.33000, 7.
38.36000, 4.
38.39000, 5.
38.42000, 5.
38.45000, 10.
38.48000, 4.
38.51000, 12.
38.54000, 3.
38.57000, 7.
38.60000, 5.
38.63000, 5.
38.66000, 3.
38.69000, 3.
38.72000, 6.
38.75000, 6.
38.78000, 7.
38.81000, 5.
38.84000, 8.
38.87000, 12.
38.90000, 7.
38.93000, 7.
38.96000, 8.
38.99000, 7.
39.02000, 9.
39.05000, 4.
39.08000, 5.
39.11000, 12.
39.14000, 5.
39.17000, 4.
39.20000, 2.
39.23000, 5.
39.26000, 4.
39.29000, 4.
39.32000, 7.
39.35000, 2.
39.38000, 5.
39.41000, 3.
39.44000, 5.
39.47000, 11.
39.50000, 10.
39.53000, 5.
39.56000, 5.
39.59000, 6.
39.62000, 9.
39.65000, 5.
39.68000, 3.
39.71000, 5.
39.74000, 8.
39.77000, 1.
39.80000, 3.
39.83000, 5.
39.86000, 3.
39.89000, 2.
39.92000, 4.
39.95000, 4.
39.98000, 3.
40.01000, 5.
40.04000, 5.
40.07000, 5.
40.10000, 10.
40.13000, 8.
40.16000, 9.
40.19000, 8.
40.22000, 6.
40.25000, 8.
40.28000, 5.
40.31000, 4.
40.34000, 7.
40.37000, 0.
40.40000, 3.
40.43000, 4.
40.46000, 7.
40.49000, 2.
40.52000, 6.
40.55000, 0.
#ENDOFDATA   :