File: sample_data/data/Spectrum value from standard/stds 2/Spectrum 19, STDS 2.txt
#FORMAT      : EMSA/MAS Spectral Data File
#VERSION     : 1.0
#TITLE       : Spectrum 19
#DATE        : 21-AUG-2025
#TIME        : 15:23
#OWNER       : XGT7200
#NPOINTS     : 4096.
#NCOLUMNS    : 1.
#XUNITS      : keV
#YUNITS      : counts
#DATATYPE    : XY
#XPERCHAN    : 0.0100000
#OFFSET      : -0.400000
#SIGNALTYPE  : EDS
#CHOFFSET    : 40.0000
#LIVETIME    : 30
#REALTIME    : 39.4803
#BEAMKV      : 50.0000
#PROBECUR    : 680000.
#MAGCAM      : 100.000
#XTILTSTGE   : 0.0
#AZIMANGLE   : 0.0
#ELEVANGLE   : 45.0
#XPOSITION mm: 0.0000
#YPOSITION mm: 0.0000
#ZPOSITION mm: 0.0000
##OXINSTPT   : 4
##OXINSTSTROB: 72.12
#SPECTRUM    : Spectral Data Starts Here
-0.40000, 0.
-0.37000, 0.
-0.34000, 0.
-0.31000, 0.
-0.28000, 0.
-0.25000, 0.
-0.22000, 0.
-0.19000, 0.
-0.16000, 0.
-0.13000, 0.
-0.10000, 0.
-0.07000, 0.
-0.04000, 0.
-0.01000, 0.
0.02000, 0.
0.05000, 0.
0.08000, 0.
0.11000, 0.
0.14000, 0.
0.17000, 0.
0.20000, 0.
0.23000, 0.
0.26000, 0.
0.29000, 0.
0.32000, 4.
0.35000, 1.
0.38000, 13.
0.41000, 27.
0.44000, 41.
0.47000, 41.
0.50000, 52.
0.53000, 41.
0.56000, 25.
0.59000, 47.
0.62000, 39.
0.65000, 34.
0.68000, 37.
0.71000, 36.
0.74000, 27.
0.77000, 27.
0.80000, 38.
0.83000, 33.
0.86000, 43.
0.89000, 30.
0.92000, 37.
0.95000, 45.
0.98000, 37.
1.01000, 37.
1.04000, 45.
1.07000, 35.
1.10000, 37.
1.13000, 36.
1.16000, 34.
1.19000, 41.
1.22000, 67.
1.25000, 83.
1.28000, 105.
1.31000, 60.
1.34000, 47.
1.37000, 52.
1.40000, 102.
1.43000, 274.
1.46000, 668.
1.49000, 833.
1.52000, 704.
1.55000, 363.
1.58000, 154.
1.61000, 105.
1.64000, 279.
1.67000, 1148.
1.70000, 3068.
1.73000, 4987.
1.76000, 5212.
1.79000, 3384.
1.82000, 1369.
1.85000, 551.
1.88000, 228.
1.91000, 124.
1.94000, 64.
1.97000, 94.
2.00000, 107.
2.03000, 111.
2.06000, 60.
2.09000, 42.
2.12000, 31.
2.15000, 32.
2.18000, 27.
2.21000, 40.
2.24000, 38.
2.27000, 51.
2.30000, 78.
2.33000, 77.
2.36000, 52.
2.39000, 43.
2.42000, 42.
2.45000, 39.
2.48000, 45.
2.51000, 42.
2.54000, 38.
2.57000, 61.
2.60000, 95.
2.63000, 193.
2.66000, 357.
2.69000, 497.
2.72000, 474.
2.75000, 341.
2.78000, 235.
2.81000, 260.
2.84000, 282.
2.87000, 264.
2.90000, 159.
2.93000, 101.
2.96000, 78.
2.99000, 76.
3.02000, 54.
3.05000, 34.
3.08000, 33.
3.11000, 30.
3.14000, 41.
3.17000, 50.
3.20000, 84.
3.23000, 181.
3.26000, 380.
3.29000, 623.
3.32000, 736.
3.35000, 592.
3.38000, 395.
3.41000, 159.
3.44000, 59.
3.47000, 53.
3.50000, 63.
3.53000, 101.
3.56000, 170.
3.59000, 381.
3.62000, 818.
3.65000, 1478.
3.68000, 1990.
3.71000, 2020.
3.74000, 1406.
3.77000, 670.
3.80000, 275.
3.83000, 78.
3.86000, 42.
3.89000, 39.
3.92000, 87.
3.95000, 163.
3.98000, 240.
4.01000, 339.
4.04000, 310.
4.07000, 228.
4.10000, 103.
4.13000, 43.
4.16000, 46.
4.19000, 30.
4.22000, 24.
4.25000, 22.
4.28000, 33.
4.31000, 35.
4.34000, 34.
4.37000, 65.
4.40000, 115.
4.43000, 207.
4.46000, 363.
4.49000, 547.
4.52000, 541.
4.55000, 433.
4.58000, 304.
4.61000, 193.
4.64000, 126.
4.67000, 116.
4.70000, 93.
4.73000, 78.
4.76000, 64.
4.79000, 62.
4.82000, 94.
4.85000, 99.
4.88000, 115.
4.91000, 121.
4.94000, 146.
4.97000, 149.
5.00000, 95.
5.03000, 66.
5.06000, 69.
5.09000, 58.
5.12000, 65.
5.15000, 56.
5.18000, 56.
5.21000, 59.
5.24000, 63.
5.27000, 71.
5.30000, 74.
5.33000, 58.
5.36000, 78.
5.39000, 81.
5.42000, 66.
5.45000, 71.
5.48000, 63.
5.51000, 69.
5.54000, 62.
5.57000, 48.
5.60000, 55.
5.63000, 59.
5.66000, 46.
5.69000, 52.
5.72000, 46.
5.75000, 71.
5.78000, 94.
5.81000, 139.
5.84000, 216.
5.87000, 309.
5.90000, 350.
5.93000, 280.
5.96000, 211.
5.99000, 137.
6.02000, 116.
6.05000, 90.
6.08000, 77.
6.11000, 88.
6.14000, 123.
6.17000, 139.
6.20000, 197.
6.23000, 500.
6.26000, 1370.
6.29000, 3505.
6.32000, 7226.
6.35000, 12268.
6.38000, 16164.
6.41000, 16586.
6.44000, 13504.
6.47000, 8768.
6.50000, 4519.
6.53000, 1907.
6.56000, 646.
6.59000, 268.
6.62000, 157.
6.65000, 112.
6.68000, 98.
6.71000, 95.
6.74000, 122.
6.77000, 106.
6.80000, 128.
6.83000, 121.
6.86000, 167.
6.89000, 269.
6.92000, 448.
6.95000, 898.
6.98000, 1480.
7.01000, 2213.
7.04000, 2675.
7.07000, 2575.
7.10000, 2019.
7.13000, 1391.
7.16000, 714.
7.19000, 339.
7.22000, 148.
7.25000, 104.
7.28000, 74.
7.31000, 49.
7.34000, 82.
7.37000, 72.
7.40000, 61.
7.43000, 80.
7.46000, 90.
7.49000, 89.
7.52000, 85.
7.55000, 85.
7.58000, 69.
7.61000, 74.
7.64000, 57.
7.67000, 75.
7.70000, 80.
7.73000, 82.
7.76000, 85.
7.79000, 79.
7.82000, 92.
7.85000, 65.
7.88000, 95.
7.91000, 97.
7.94000, 100.
7.97000, 110.
8.00000, 114.
8.03000, 121.
8.06000, 140.
8.09000, 124.
8.12000, 122.
8.15000, 137.
8.18000, 126.
8.21000, 120.
8.24000, 101.
8.27000, 94.
8.30000, 91.
8.33000, 80.
8.36000, 80.
8.39000, 87.
8.42000, 88.
8.45000, 103.
8.48000, 104.
8.51000, 140.
8.54000, 156.
8.57000, 181.
8.60000, 231.
8.63000, 215.
8.66000, 211.
8.69000, 186.
8.72000, 166.
8.75000, 136.
8.78000, 115.
8.81000, 94.
8.84000, 113.
8.87000, 100.
8.90000, 109.
8.93000, 116.
8.96000, 117.
8.99000, 108.
9.02000, 95.
9.05000, 105.
9.08000, 98.
9.11000, 88.
9.14000, 113.
9.17000, 115.
9.20000, 103.
9.23000, 126.
9.26000, 105.
9.29000, 131.
9.32000, 128.
9.35000, 119.
9.38000, 129.
9.41000, 101.
9.44000, 118.
9.47000, 113.
9.50000, 110.
9.53000, 104.
9.56000, 110.
9.59000, 115.
9.62000, 123.
9.65000, 104.
9.68000, 118.
9.71000, 102.
9.74000, 78.
9.77000, 105.
9.80000, 100.
9.83000, 119.
9.86000, 115.
9.89000, 117.
9.92000, 119.
9.95000, 121.
9.98000, 111.
10.01000, 113.
10.04000, 115.
10.07000, 118.
10.10000, 128.
10.13000, 140.
10.16000, 114.
10.19000, 107.
10.22000, 106.
10.25000, 129.
10.28000, 123.
10.31000, 117.
10.34000, 123.
10.37000, 114.
10.40000, 136.
10.43000, 120.
10.46000, 142.
10.49000, 165.
10.52000, 164.
10.55000, 136.
10.58000, 153.
10.61000, 145.
10.64000, 136.
10.67000, 111.
10.70000, 119.
10.73000, 116.
10.76000, 123.
10.79000, 135.
10.82000, 126.
10.85000, 117.
10.88000, 132.
10.91000, 153.
10.94000, 123.
10.97000, 108.
11.00000, 120.
11.03000, 98.
11.06000, 118.
11.09000, 128.
11.12000, 130.
11.15000, 119.
11.18000, 118.
11.21000, 121.
11.24000, 132.
11.27000, 124.
11.30000, 118.
11.33000, 120.
11.36000, 122.
11.39000, 128.
11.42000, 119.
11.45000, 129.
11.48000, 111.
11.51000, 136.
11.54000, 112.
11.57000, 140.
11.60000, 124.
11.63000, 109.
11.66000, 129.
11.69000, 134.
11.72000, 135.
11.75000, 120.
11.78000, 115.
11.81000, 122.
11.84000, 135.
11.87000, 134.
11.90000, 127.
11.93000, 131.
11.96000, 146.
11.99000, 153.
12.02000, 129.
12.05000, 110.
12.08000, 122.
12.11000, 131.
12.14000, 132.
12.17000, 123.
12.20000, 144.
12.23000, 134.
12.26000, 146.
12.29000, 150.
12.32000, 159.
12.35000, 130.
12.38000, 107.
12.41000, 132.
12.44000, 137.
12.47000, 135.
12.50000, 141.
12.53000, 140.
12.56000, 146.
12.59000, 144.
12.62000, 149.
12.65000, 158.
12.68000, 162.
12.71000, 165.
12.74000, 158.
12.77000, 183.
12.80000, 174.
12.83000, 177.
12.86000, 161.
12.89000, 164.
12.92000, 125.
12.95000, 153.
12.98000, 176.
13.01000, 132.
13.04000, 151.
13.07000, 152.
13.10000, 142.
13.13000, 139.
13.16000, 139.
13.19000, 178.
13.22000, 151.
13.25000, 180.
13.28000, 205.
13.31000, 235.
13.34000, 244.
13.37000, 214.
13.40000, 252.
13.43000, 216.
13.46000, 217.
13.49000, 176.
13.52000, 162.
13.55000, 153.
13.58000, 130.
13.61000, 147.
13.64000, 152.
13.67000, 143.
13.70000, 136.
13.73000, 131.
13.76000, 133.
13.79000, 136.
13.82000, 136.
13.85000, 154.
13.88000, 167.
13.91000, 157.
13.94000, 208.
13.97000, 216.
14.00000, 281.
14.03000, 344.
14.06000, 418.
14.09000, 451.
14.12000, 474.
14.15000, 495.
14.18000, 441.
14.21000, 375.
14.24000, 354.
14.27000, 267.
14.30000, 206.
14.33000, 146.
14.36000, 128.
14.39000, 121.
14.42000, 129.
14.45000, 152.
14.48000, 136.
14.51000, 132.
14.54000, 125.
14.57000, 145.
14.60000, 138.
14.63000, 147.
14.66000, 147.
14.69000, 144.
14.72000, 140.
14.75000, 160.
14.78000, 147.
14.81000, 155.
14.84000, 172.
14.87000, 166.
14.90000, 167.
14.93000, 176.
14.96000, 171.
14.99000, 152.
15.02000, 165.
15.05000, 128.
15.08000, 151.
15.11000, 132.
15.14000, 129.
15.17000, 136.
15.20000, 141.
15.23000, 137.
15.26000, 114.
15.29000, 139.
15.32000, 133.
15.35000, 115.
15.38000, 140.
15.41000, 128.
15.44000, 132.
15.47000, 143.
15.50000, 128.
15.53000, 158.
15.56000, 180.
15.59000, 198.
15.62000, 261.
15.65000, 241.
15.68000, 332.
15.71000, 370.
15.74000, 388.
15.77000, 380.
15.80000, 361.
15.83000, 306.
15.86000, 257.
15.89000, 232.
15.92000, 173.
15.95000, 164.
15.98000, 164.
16.01000, 155.
16.04000, 159.
16.07000, 135.
16.10000, 142.
16.13000, 132.
16.16000, 136.
16.19000, 147.
16.22000, 137.
16.25000, 148.
16.28000, 134.
16.31000, 128.
16.34000, 150.
16.37000, 135.
16.40000, 128.
16.43000, 137.
16.46000, 152.
16.49000, 153.
16.52000, 153.
16.55000, 156.
16.58000, 152.
16.61000, 159.
16.64000, 138.
16.67000, 128.
16.70000, 143.
16.73000, 133.
16.76000, 129.
16.79000, 133.
16.82000, 145.
16.85000, 143.
16.88000, 149.
16.91000, 139.
16.94000, 114.
16.97000, 129.
17.00000, 146.
17.03000, 145.
17.06000, 103.
17.09000, 133.
17.12000, 142.
17.15000, 146.
17.18000, 139.
17.21000, 125.
17.24000, 154.
17.27000, 148.
17.30000, 137.
17.33000, 154.
17.36000, 145.
17.39000, 175.
17.42000, 169.
17.45000, 160.
17.48000, 164.
17.51000, 165.
17.54000, 160.
17.57000, 168.
17.60000, 175.
17.63000, 195.
17.66000, 207.
17.69000, 202.
17.72000, 188.
17.75000, 158.
17.78000, 196.
17.81000, 175.
17.84000, 178.
17.87000, 188.
17.90000, 207.
17.93000, 190.
17.96000, 191.
17.99000, 186.
18.02000, 213.
18.05000, 216.
18.08000, 225.
18.11000, 194.
18.14000, 227.
18.17000, 262.
18.20000, 236.
18.23000, 245.
18.26000, 262.
18.29000, 303.
18.32000, 326.
18.35000, 334.
18.38000, 364.
18.41000, 398.
18.44000, 473.
18.47000, 455.
18.50000, 481.
18.53000, 554.
18.56000, 625.
18.59000, 622.
18.62000, 705.
18.65000, 738.
18.68000, 750.
18.71000, 801.
18.74000, 804.
18.77000, 781.
18.80000, 806.
18.83000, 819.
18.86000, 769.
18.89000, 745.
18.92000, 699.
18.95000, 716.
18.98000, 694.
19.01000, 664.
19.04000, 566.
19.07000, 514.
19.10000, 467.
19.13000, 451.
19.16000, 406.
19.19000, 364.
19.22000, 344.
19.25000, 317.
19.28000, 307.
19.31000, 244.
19.34000, 252.
19.37000, 261.
19.40000, 241.
19.43000, 229.
19.46000, 216.
19.49000, 211.
19.52000, 204.
19.55000, 211.
19.58000, 199.
19.61000, 188.
19.64000, 171.
19.67000, 173.
19.70000, 160.
19.73000, 165.
19.76000, 160.
19.79000, 161.
19.82000, 156.
19.85000, 160.
19.88000, 178.
19.91000, 195.
19.94000, 245.
19.97000, 312.
20.00000, 343.
20.03000, 391.
20.06000, 445.
20.09000, 500.
20.12000, 509.
20.15000, 555.
20.18000, 513.
20.21000, 485.
20.24000, 407.
20.27000, 352.
20.30000, 270.
20.33000, 228.
20.36000, 181.
20.39000, 156.
20.42000, 150.
20.45000, 140.
20.48000, 178.
20.51000, 154.
20.54000, 168.
20.57000, 179.
20.60000, 163.
20.63000, 180.
20.66000, 144.
20.69000, 163.
20.72000, 154.
20.75000, 187.
20.78000, 185.
20.81000, 200.
20.84000, 230.
20.87000, 193.
20.90000, 217.
20.93000, 219.
20.96000, 230.
20.99000, 205.
21.02000, 232.
21.05000, 213.
21.08000, 240.
21.11000, 199.
21.14000, 220.
21.17000, 189.
21.20000, 198.
21.23000, 173.
21.26000, 162.
21.29000, 167.
21.32000, 167.
21.35000, 157.
21.38000, 152.
21.41000, 152.
21.44000, 147.
21.47000, 117.
21.50000, 142.
21.53000, 130.
21.56000, 142.
21.59000, 104.
21.62000, 133.
21.65000, 107.
21.68000, 108.
21.71000, 125.
21.74000, 94.
21.77000, 95.
21.80000, 94.
21.83000, 103.
21.86000, 70.
21.89000, 93.
21.92000, 97.
21.95000, 65.
21.98000, 81.
22.01000, 86.
22.04000, 102.
22.07000, 87.
22.10000, 102.
22.13000, 96.
22.16000, 89.
22.19000, 75.
22.22000, 84.
22.25000, 82.
22.28000, 77.
22.31000, 82.
22.34000, 87.
22.37000, 82.
22.40000, 74.
22.43000, 75.
22.46000, 86.
22.49000, 89.
22.52000, 103.
22.55000, 104.
22.58000, 107.
22.61000, 125.
22.64000, 144.
22.67000, 123.
22.70000, 136.
22.73000, 117.
22.76000, 113.
22.79000, 95.
22.82000, 84.
22.85000, 75.
22.88000, 78.
22.91000, 58.
22.94000, 72.
22.97000, 76.
23.00000, 69.
23.03000, 59.
23.06000, 66.
23.09000, 71.
23.12000, 90.
23.15000, 73.
23.18000, 73.
23.21000, 79.
23.24000, 78.
23.27000, 48.
23.30000, 77.
23.33000, 68.
23.36000, 46.
23.39000, 64.
23.42000, 72.
23.45000, 63.
23.48000, 62.
23.51000, 65.
23.54000, 59.
23.57000, 53.
23.60000, 58.
23.63000, 50.
23.66000, 56.
23.69000, 55.
23.72000, 59.
23.75000, 67.
23.78000, 54.
23.81000, 60.
23.84000, 51.
23.87000, 57.
23.90000, 52.
23.93000, 66.
23.96000, 53.
23.99000, 57.
24.02000, 64.
24.05000, 46.
24.08000, 60.
24.11000, 53.
24.14000, 64.
24.17000, 62.
24.20000, 69.
24.23000, 80.
24.26000, 64.
24.29000, 41.
24.32000, 60.
24.35000, 53.
24.38000, 51.
24.41000, 68.
24.44000, 50.
24.47000, 49.
24.50000, 53.
24.53000, 70.
24.56000, 66.
24.59000, 68.
24.62000, 43.
24.65000, 64.
24.68000, 44.
24.71000, 62.
24.74000, 65.
24.77000, 48.
24.80000, 46.
24.83000, 50.
24.86000, 47.
24.89000, 53.
24.92000, 52.
24.95000, 71.
24.98000, 62.
25.01000, 68.
25.04000, 54.
25.07000, 49.
25.10000, 53.
25.13000, 74.
25.16000, 73.
25.19000, 62.
25.22000, 63.
25.25000, 62.
25.28000, 64.
25.31000, 63.
25.34000, 62.
25.37000, 51.
25.40000, 54.
25.43000, 68.
25.46000, 45.
25.49000, 46.
25.52000, 56.
25.55000, 44.
25.58000, 46.
25.61000, 50.
25.64000, 45.
25.67000, 63.
25.70000, 59.
25.73000, 54.
25.76000, 46.
25.79000, 59.
25.82000, 43.
25.85000, 42.
25.88000, 50.
25.91000, 40.
25.94000, 67.
25.97000, 49.
26.00000, 43.
26.03000, 50.
26.06000, 63.
26.09000, 44.
26.12000, 47.
26.15000, 64.
26.18000, 50.
26.21000, 51.
26.24000, 52.
26.27000, 49.
26.30000, 42.
26.33000, 47.
26.36000, 44.
26.39000, 50.
26.42000, 40.
26.45000, 46.
26.48000, 47.
26.51000, 48.
26.54000, 46.
26.57000, 57.
26.60000, 42.
26.63000, 52.
26.66000, 48.
26.69000, 50.
26.72000, 49.
26.75000, 47.
26.78000, 44.
26.81000, 46.
26.84000, 52.
26.87000, 45.
26.90000, 62.
26.93000, 37.
26.96000, 40.
26.99000, 36.
27.02000, 45.
27.05000, 49.
27.08000, 45.
27.11000, 47.
27.14000, 43.
27.17000, 50.
27.20000, 48.
27.23000, 49.
27.26000, 52.
27.29000, 42.
27.32000, 63.
27.35000, 52.
27.38000, 37.
27.41000, 41.
27.44000, 50.
27.47000, 49.
27.50000, 41.
27.53000, 37.
27.56000, 56.
27.59000, 47.
27.62000, 46.
27.65000, 48.
27.68000, 39.
27.71000, 39.
27.74000, 39.
27.77000, 36.
27.80000, 39.
27.83000, 39.
27.86000, 41.
27.89000, 46.
27.92000, 37.
27.95000, 40.
27.98000, 44.
28.01000, 52.
28.04000, 39.
28.07000, 40.
28.10000, 45.
28.13000, 37.
28.16000, 43.
28.19000, 50.
28.22000, 53.
28.25000, 38.
28.28000, 38.
28.31000, 47.
28.34000, 42.
28.37000, 32.
28.40000, 41.
28.43000, 48.
28.46000, 45.
28.49000, 42.
28.52000, 37.
28.55000, 34.
28.58000, 45.
28.61000, 32.
28.64000, 45.
28.67000, 30.
28.70000, 36.
28.73000, 34.
28.76000, 43.
28.79000, 32.
28.82000, 27.
28.85000, 50.
28.88000, 43.
28.91000, 39.
28.94000, 52.
28.97000, 32.
29.00000, 50.
29.03000, 34.
29.06000, 39.
29.09000, 35.
29.12000, 45.
29.15000, 34.
29.18000, 29.
29.21000, 36.
29.24000, 30.
29.27000, 44.
29.30000, 35.
29.33000, 51.
29.36000, 36.
29.39000, 39.
29.42000, 38.
29.45000, 29.
29.48000, 33.
29.51000, 30.
29.54000, 35.
29.57000, 35.
29.60000, 39.
29.63000, 33.
29.66000, 36.
29.69000, 36.
29.72000, 44.
29.75000, 30.
29.78000, 32.
29.81000, 30.
29.84000, 29.
29.87000, 35.
29.90000, 33.
29.93000, 39.
29.96000, 35.
29.99000, 28.
30.02000, 29.
30.05000, 40.
30.08000, 32.
30.11000, 18.
30.14000, 31.
30.17000, 40.
30.20000, 35.
30.23000, 35.
30.26000, 29.
30.29000, 34.
30.32000, 26.
30.35000, 27.
30.38000, 26.
30.41000, 33.
30.44000, 21.
30.47000, 26.
30.50000, 28.
30.53000, 32.
30.56000, 42.
30.59000, 28.
30.62000, 41.
30.65000, 27.
30.68000, 34.
30.71000, 34.
30.74000, 30.
30.77000, 29.
30.80000, 26.
30.83000, 36.
30.86000, 32.
30.89000, 27.
30.92000, 28.
30.95000, 30.
30.98000, 37.
31.01000, 21.
31.04000, 33.
31.07000, 36.
31.10000, 27.
31.13000, 27.
31.16000, 23.
31.19000, 31.
31.22000, 28.
31.25000, 32.
31.28000, 25.
31.31000, 34.
31.34000, 30.
31.37000, 28.
31.40000, 37.
31.43000, 30.
31.46000, 27.
31.49000, 27.
31.52000, 23.
31.55000, 33.
31.58000, 32.
31.61000, 30.
31.64000, 21.
31.67000, 29.
31.70000, 28.
31.73000, 36.
31.76000, 35.
31.79000, 25.
31.82000, 26.
31.85000, 23.
31.88000, 31.
31.91000, 28.
31.94000, 21.
31.97000, 46.
32.00000, 23.
32.03000, 27.
32.06000, 28.
32.09000, 28.
32.12000, 32.
32.15000, 28.
32.18000, 41.
32.21000, 19.
32.24000, 29.
32.27000, 32.
32.30000, 16.
32.33000, 29.
32.36000, 16.
32.39000, 38.
32.42000, 27.
32.45000, 26.
32.48000, 30.
32.51000, 22.
32.54000, 23.
32.57000, 20.
32.60000, 20.
32.63000, 25.
32.66000, 22.
32.69000, 16.
32.72000, 15.
32.75000, 22.
32.78000, 20.
32.81000, 32.
32.84000, 25.
32.87000, 20.
32.90000, 17.
32.93000, 16.
32.96000, 17.
32.99000, 38.
33.02000, 24.
33.05000, 23.
33.08000, 22.
33.11000, 22.
33.14000, 18.
33.17000, 15.
33.20000, 25.
33.23000, 26.
33.26000, 20.
33.29000, 20.
33.32000, 23.
33.35000, 23.
33.38000, 19.
33.41000, 18.
33.44000, 24.
33.47000, 18.
33.50000, 19.
33.53000, 13.
33.56000, 22.
33.59000, 18.
33.62000, 15.
33.65000, 24.
33.68000, 21.
33.71000, 17.
33.74000, 17.
33.77000, 19.
33.80000, 19.
33.83000, 23.
33.86000, 22.
33.89000, 24.
33.92000, 16.
33.95000, 22.
33.98000, 18.
34.01000, 19.
34.04000, 12.
34.07000, 10.
34.10000, 24.
34.13000, 21.
34.16000, 22.
34.19000, 8.
34.22000, 17.
34.25000, 13.
34.28000, 12.
34.31000, 14.
34.34000, 21.
34.37000, 18.
34.40000, 14.
34.43000, 20.
34.46000, 25.
34.49000, 11.
34.52000, 19.
34.55000, 16.
34.58000, 19.
34.61000, 22.
34.64000, 21.
34.67000, 12.
34.70000, 16.
34.73000, 12.
34.76000, 18.
34.79000, 17.
34.82000, 16.
34.85000, 21.
34.88000, 18.
34.91000, 12.
34.94000, 15.
34.97000, 17.
35.00000, 19.
35.03000, 17.
35.06000, 19.
35.09000, 10.
35.12000, 15.
35.15000, 15.
35.18000, 15.
35.21000, 13.
35.24000, 11.
35.27000, 11.
35.30000, 12.
35.33000, 9.
35.36000, 15.
35.39000, 13.
35.42000, 19.
35.45000, 17.
35.48000, 18.
35.51000, 12.
35.54000, 9.
35.57000, 8.
35.60000, 19.
35.63000, 9.
35.66000, 10.
35.69000, 9.
35.72000, 14.
35.75000, 12.
35.78000, 9.
35.81000, 18.
35.84000, 9.
35.87000, 21.
35.90000, 11.
35.93000, 9.
35.96000, 15.
35.99000, 10.
36.02000, 21.
36.05000, 15.
36.08000, 9.
36.11000, 15.
36.14000, 14.
36.17000, 11.
36.20000, 13.
36.23000, 10.
36.26000, 21.
36.29000, 14.
36.32000, 13.
36.35000, 9.
36.38000, 10.
36.41000, 17.
36.44000, 4.
36.47000, 11.
36.50000, 9.
36.53000, 8.
36.56000, 4.
36.59000, 12.
36.62000, 9.
36.65000, 16.
36.68000, 8.
36.71000, 11.
36.74000, 10.
36.77000, 12.
36.80000, 12.
36.83000, 10.
36.86000, 16.
36.89000, 12.
36.92000, 15.
36.95000, 12.
36.98000, 11.
37.01000, 19.
37.04000, 13.
37.07000, 15.
37.10000, 16.
37.13000, 7.
37.16000, 6.
37.19000, 18.
37.22000, 13.
37.25000, 6.
37.28000, 19.
37.31000, 10.
37.34000, 12.
37.37000, 16.
37.40000, 7.
37.43000, 9.
37.46000, 10.
37.49000, 12.
37.52000, 7.
37.55000, 8.
37.58000, 8.
37.61000, 9.
37.64000, 10.
37.67000, 14.
37.70000, 7.
37.73000, 5.
37.76000, 7.
37.79000, 9.
37.82000, 10.
37.85000, 6.
37.88000, 7.
37.91000, 8.
37.94000, 12.
37.97000, 6.
38.00000, 16.
38.03000, 10.
38.06000, 7.
38.09000, 6.
38.12000, 11.
38.15000, 9.
38.18000, 5.
38.21000, 8.
38.24000, 7.
38.27000, 7.
38.30000, 8.
38.33000, 6.
38.36000, 9.
38.39000, 8.
38.42000, 10.
38.45000, 6.
38.48000, 7.
38.51000, 6.
38.54000, 5.
38.57000, 10.
38.60000, 8.
38.63000, 9.
38.66000, 8.
38.69000, 8.
38.72000, 6.
38.75000, 3.
38.78000, 12.
38.81000, 7.
38.84000, 11.
38.87000, 13.
38.90000, 7.
38.93000, 13.
38.96000, 7.
38.99000, 9.
39.02000, 7.
39.05000, 5.
39.08000, 7.
39.11000, 6.
39.14000, 9.
39.17000, 8.
39.20000, 12.
39.23000, 3.
39.26000, 6.
39.29000, 7.
39.32000, 6.
39.35000, 5.
39.38000, 6.
39.41000, 7.
39.44000, 5.
39.47000, 5.
39.50000, 4.
39.53000, 9.
39.56000, 3.
39.59000, 8.
39.62000, 7.
39.65000, 2.
39.68000, 6.
39.71000, 4.
39.74000, 4.
39.77000, 5.
39.80000, 7.
39.83000, 6.
39.86000, 6.
39.89000, 7.
39.92000, 2.
39.95000, 5.
39.98000, 7.
40.01000, 7.
40.04000, 7.
40.07000, 7.
40.10000, 3.
40.13000, 0.
40.16000, 5.
40.19000, 5.
40.22000, 4.
40.25000, 4.
40.28000, 5.
40.31000, 4.
40.34000, 3.
40.37000, 6.
40.40000, 8.
40.43000, 4.
40.46000, 2.
40.49000, 2.
40.52000, 1.
40.55000, 0.
#ENDOFDATA   :