File: sample_data/data/Spectrum value from standard/Nist 2586/Spectrum 30.txt
#FORMAT      : EMSA/MAS Spectral Data File
#VERSION     : 1.0
#TITLE       : Spectrum 30
#DATE        : 21-AUG-2025
#TIME        : 15:34
#OWNER       : XGT7200
#NPOINTS     : 4096.
#NCOLUMNS    : 1.
#XUNITS      : keV
#YUNITS      : counts
#DATATYPE    : XY
#XPERCHAN    : 0.0100000
#OFFSET      : -0.400000
#SIGNALTYPE  : EDS
#CHOFFSET    : 40.0000
#LIVETIME    : 30
#REALTIME    : 39.8333
#BEAMKV      : 50.0000
#PROBECUR    : 680000.
#MAGCAM      : 100.000
#XTILTSTGE   : 0.0
#AZIMANGLE   : 0.0
#ELEVANGLE   : 45.0
#XPOSITION mm: 0.0000
#YPOSITION mm: 0.0000
#ZPOSITION mm: 0.0000
##OXINSTPT   : 4
##OXINSTSTROB: 71.88
#SPECTRUM    : Spectral Data Starts Here
-0.40000, 0.
-0.37000, 0.
-0.34000, 0.
-0.31000, 0.
-0.28000, 0.
-0.25000, 0.
-0.22000, 0.
-0.19000, 0.
-0.16000, 0.
-0.13000, 0.
-0.10000, 0.
-0.07000, 0.
-0.04000, 0.
-0.01000, 0.
0.02000, 0.
0.05000, 0.
0.08000, 0.
0.11000, 0.
0.14000, 0.
0.17000, 0.
0.20000, 0.
0.23000, 0.
0.26000, 0.
0.29000, 0.
0.32000, 0.
0.35000, 1.
0.38000, 11.
0.41000, 29.
0.44000, 28.
0.47000, 40.
0.50000, 43.
0.53000, 47.
0.56000, 34.
0.59000, 42.
0.62000, 37.
0.65000, 39.
0.68000, 37.
0.71000, 43.
0.74000, 34.
0.77000, 38.
0.80000, 32.
0.83000, 37.
0.86000, 43.
0.89000, 39.
0.92000, 37.
0.95000, 50.
0.98000, 50.
1.01000, 53.
1.04000, 47.
1.07000, 40.
1.10000, 28.
1.13000, 36.
1.16000, 37.
1.19000, 50.
1.22000, 62.
1.25000, 83.
1.28000, 83.
1.31000, 51.
1.34000, 39.
1.37000, 35.
1.40000, 90.
1.43000, 250.
1.46000, 571.
1.49000, 781.
1.52000, 610.
1.55000, 332.
1.58000, 136.
1.61000, 118.
1.64000, 301.
1.67000, 1259.
1.70000, 3548.
1.73000, 5892.
1.76000, 6014.
1.79000, 3729.
1.82000, 1684.
1.85000, 561.
1.88000, 253.
1.91000, 121.
1.94000, 72.
1.97000, 62.
2.00000, 74.
2.03000, 71.
2.06000, 43.
2.09000, 41.
2.12000, 28.
2.15000, 24.
2.18000, 25.
2.21000, 33.
2.24000, 53.
2.27000, 57.
2.30000, 78.
2.33000, 91.
2.36000, 79.
2.39000, 49.
2.42000, 46.
2.45000, 47.
2.48000, 43.
2.51000, 38.
2.54000, 51.
2.57000, 57.
2.60000, 88.
2.63000, 184.
2.66000, 354.
2.69000, 495.
2.72000, 487.
2.75000, 351.
2.78000, 251.
2.81000, 275.
2.84000, 319.
2.87000, 287.
2.90000, 200.
2.93000, 146.
2.96000, 80.
2.99000, 72.
3.02000, 51.
3.05000, 46.
3.08000, 33.
3.11000, 31.
3.14000, 34.
3.17000, 38.
3.20000, 42.
3.23000, 119.
3.26000, 239.
3.29000, 354.
3.32000, 470.
3.35000, 395.
3.38000, 227.
3.41000, 93.
3.44000, 55.
3.47000, 42.
3.50000, 42.
3.53000, 63.
3.56000, 133.
3.59000, 267.
3.62000, 558.
3.65000, 931.
3.68000, 1397.
3.71000, 1397.
3.74000, 960.
3.77000, 451.
3.80000, 202.
3.83000, 66.
3.86000, 47.
3.89000, 43.
3.92000, 83.
3.95000, 138.
3.98000, 181.
4.01000, 230.
4.04000, 218.
4.07000, 162.
4.10000, 91.
4.13000, 53.
4.16000, 37.
4.19000, 30.
4.22000, 34.
4.25000, 27.
4.28000, 29.
4.31000, 37.
4.34000, 40.
4.37000, 64.
4.40000, 121.
4.43000, 265.
4.46000, 461.
4.49000, 687.
4.52000, 773.
4.55000, 585.
4.58000, 384.
4.61000, 210.
4.64000, 150.
4.67000, 111.
4.70000, 104.
4.73000, 83.
4.76000, 61.
4.79000, 70.
4.82000, 81.
4.85000, 102.
4.88000, 154.
4.91000, 168.
4.94000, 199.
4.97000, 162.
5.00000, 116.
5.03000, 75.
5.06000, 50.
5.09000, 43.
5.12000, 39.
5.15000, 51.
5.18000, 65.
5.21000, 59.
5.24000, 46.
5.27000, 67.
5.30000, 58.
5.33000, 96.
5.36000, 103.
5.39000, 122.
5.42000, 139.
5.45000, 123.
5.48000, 89.
5.51000, 86.
5.54000, 73.
5.57000, 62.
5.60000, 59.
5.63000, 46.
5.66000, 53.
5.69000, 45.
5.72000, 54.
5.75000, 67.
5.78000, 96.
5.81000, 135.
5.84000, 209.
5.87000, 294.
5.90000, 329.
5.93000, 271.
5.96000, 200.
5.99000, 150.
6.02000, 109.
6.05000, 73.
6.08000, 90.
6.11000, 93.
6.14000, 111.
6.17000, 134.
6.20000, 224.
6.23000, 521.
6.26000, 1481.
6.29000, 3659.
6.32000, 7375.
6.35000, 12120.
6.38000, 16341.
6.41000, 16520.
6.44000, 13730.
6.47000, 8795.
6.50000, 4577.
6.53000, 1850.
6.56000, 656.
6.59000, 219.
6.62000, 156.
6.65000, 129.
6.68000, 110.
6.71000, 103.
6.74000, 109.
6.77000, 122.
6.80000, 121.
6.83000, 143.
6.86000, 170.
6.89000, 295.
6.92000, 466.
6.95000, 830.
6.98000, 1496.
7.01000, 2185.
7.04000, 2692.
7.07000, 2656.
7.10000, 2095.
7.13000, 1333.
7.16000, 771.
7.19000, 393.
7.22000, 166.
7.25000, 111.
7.28000, 73.
7.31000, 58.
7.34000, 76.
7.37000, 80.
7.40000, 86.
7.43000, 96.
7.46000, 106.
7.49000, 98.
7.52000, 87.
7.55000, 78.
7.58000, 65.
7.61000, 95.
7.64000, 77.
7.67000, 69.
7.70000, 75.
7.73000, 63.
7.76000, 78.
7.79000, 78.
7.82000, 82.
7.85000, 101.
7.88000, 98.
7.91000, 109.
7.94000, 108.
7.97000, 142.
8.00000, 155.
8.03000, 127.
8.06000, 164.
8.09000, 186.
8.12000, 160.
8.15000, 159.
8.18000, 136.
8.21000, 120.
8.24000, 106.
8.27000, 88.
8.30000, 91.
8.33000, 101.
8.36000, 114.
8.39000, 116.
8.42000, 102.
8.45000, 122.
8.48000, 115.
8.51000, 121.
8.54000, 183.
8.57000, 229.
8.60000, 277.
8.63000, 326.
8.66000, 304.
8.69000, 232.
8.72000, 186.
8.75000, 148.
8.78000, 135.
8.81000, 122.
8.84000, 121.
8.87000, 112.
8.90000, 131.
8.93000, 112.
8.96000, 119.
8.99000, 120.
9.02000, 104.
9.05000, 122.
9.08000, 124.
9.11000, 109.
9.14000, 124.
9.17000, 120.
9.20000, 123.
9.23000, 128.
9.26000, 124.
9.29000, 128.
9.32000, 103.
9.35000, 136.
9.38000, 102.
9.41000, 128.
9.44000, 111.
9.47000, 135.
9.50000, 127.
9.53000, 126.
9.56000, 151.
9.59000, 135.
9.62000, 157.
9.65000, 146.
9.68000, 118.
9.71000, 140.
9.74000, 139.
9.77000, 122.
9.80000, 134.
9.83000, 119.
9.86000, 130.
9.89000, 120.
9.92000, 133.
9.95000, 111.
9.98000, 139.
10.01000, 123.
10.04000, 128.
10.07000, 113.
10.10000, 120.
10.13000, 115.
10.16000, 102.
10.19000, 131.
10.22000, 90.
10.25000, 134.
10.28000, 115.
10.31000, 133.
10.34000, 125.
10.37000, 162.
10.40000, 151.
10.43000, 185.
10.46000, 240.
10.49000, 246.
10.52000, 269.
10.55000, 247.
10.58000, 231.
10.61000, 191.
10.64000, 175.
10.67000, 164.
10.70000, 144.
10.73000, 127.
10.76000, 143.
10.79000, 119.
10.82000, 125.
10.85000, 141.
10.88000, 139.
10.91000, 122.
10.94000, 129.
10.97000, 132.
11.00000, 141.
11.03000, 137.
11.06000, 145.
11.09000, 125.
11.12000, 129.
11.15000, 131.
11.18000, 154.
11.21000, 126.
11.24000, 147.
11.27000, 147.
11.30000, 142.
11.33000, 128.
11.36000, 134.
11.39000, 114.
11.42000, 141.
11.45000, 142.
11.48000, 139.
11.51000, 141.
11.54000, 144.
11.57000, 144.
11.60000, 142.
11.63000, 135.
11.66000, 152.
11.69000, 113.
11.72000, 127.
11.75000, 142.
11.78000, 158.
11.81000, 148.
11.84000, 159.
11.87000, 135.
11.90000, 134.
11.93000, 132.
11.96000, 143.
11.99000, 163.
12.02000, 138.
12.05000, 145.
12.08000, 151.
12.11000, 155.
12.14000, 158.
12.17000, 128.
12.20000, 122.
12.23000, 161.
12.26000, 137.
12.29000, 184.
12.32000, 154.
12.35000, 150.
12.38000, 128.
12.41000, 168.
12.44000, 179.
12.47000, 164.
12.50000, 213.
12.53000, 224.
12.56000, 213.
12.59000, 274.
12.62000, 294.
12.65000, 260.
12.68000, 228.
12.71000, 213.
12.74000, 218.
12.77000, 212.
12.80000, 189.
12.83000, 172.
12.86000, 170.
12.89000, 176.
12.92000, 147.
12.95000, 163.
12.98000, 158.
13.01000, 162.
13.04000, 180.
13.07000, 149.
13.10000, 160.
13.13000, 136.
13.16000, 147.
13.19000, 179.
13.22000, 152.
13.25000, 168.
13.28000, 194.
13.31000, 190.
13.34000, 228.
13.37000, 197.
13.40000, 197.
13.43000, 209.
13.46000, 188.
13.49000, 160.
13.52000, 140.
13.55000, 161.
13.58000, 178.
13.61000, 173.
13.64000, 162.
13.67000, 145.
13.70000, 142.
13.73000, 164.
13.76000, 122.
13.79000, 141.
13.82000, 137.
13.85000, 127.
13.88000, 119.
13.91000, 160.
13.94000, 133.
13.97000, 179.
14.00000, 185.
14.03000, 184.
14.06000, 213.
14.09000, 219.
14.12000, 223.
14.15000, 209.
14.18000, 198.
14.21000, 200.
14.24000, 180.
14.27000, 149.
14.30000, 157.
14.33000, 146.
14.36000, 152.
14.39000, 132.
14.42000, 152.
14.45000, 158.
14.48000, 143.
14.51000, 153.
14.54000, 141.
14.57000, 155.
14.60000, 147.
14.63000, 179.
14.66000, 176.
14.69000, 167.
14.72000, 148.
14.75000, 172.
14.78000, 160.
14.81000, 167.
14.84000, 183.
14.87000, 160.
14.90000, 162.
14.93000, 181.
14.96000, 159.
14.99000, 156.
15.02000, 167.
15.05000, 157.
15.08000, 153.
15.11000, 161.
15.14000, 169.
15.17000, 157.
15.20000, 149.
15.23000, 152.
15.26000, 146.
15.29000, 143.
15.32000, 133.
15.35000, 151.
15.38000, 130.
15.41000, 131.
15.44000, 148.
15.47000, 155.
15.50000, 170.
15.53000, 191.
15.56000, 228.
15.59000, 259.
15.62000, 303.
15.65000, 341.
15.68000, 412.
15.71000, 441.
15.74000, 437.
15.77000, 397.
15.80000, 350.
15.83000, 294.
15.86000, 253.
15.89000, 235.
15.92000, 183.
15.95000, 150.
15.98000, 178.
16.01000, 128.
16.04000, 142.
16.07000, 141.
16.10000, 140.
16.13000, 135.
16.16000, 145.
16.19000, 140.
16.22000, 141.
16.25000, 162.
16.28000, 114.
16.31000, 142.
16.34000, 163.
16.37000, 126.
16.40000, 159.
16.43000, 143.
16.46000, 155.
16.49000, 159.
16.52000, 155.
16.55000, 136.
16.58000, 164.
16.61000, 158.
16.64000, 162.
16.67000, 154.
16.70000, 162.
16.73000, 141.
16.76000, 149.
16.79000, 150.
16.82000, 151.
16.85000, 146.
16.88000, 143.
16.91000, 135.
16.94000, 134.
16.97000, 171.
17.00000, 151.
17.03000, 141.
17.06000, 164.
17.09000, 165.
17.12000, 150.
17.15000, 166.
17.18000, 142.
17.21000, 140.
17.24000, 171.
17.27000, 161.
17.30000, 150.
17.33000, 189.
17.36000, 190.
17.39000, 172.
17.42000, 166.
17.45000, 162.
17.48000, 165.
17.51000, 177.
17.54000, 216.
17.57000, 193.
17.60000, 190.
17.63000, 208.
17.66000, 214.
17.69000, 235.
17.72000, 214.
17.75000, 219.
17.78000, 205.
17.81000, 220.
17.84000, 177.
17.87000, 187.
17.90000, 191.
17.93000, 194.
17.96000, 236.
17.99000, 210.
18.02000, 221.
18.05000, 227.
18.08000, 244.
18.11000, 232.
18.14000, 290.
18.17000, 265.
18.20000, 246.
18.23000, 264.
18.26000, 297.
18.29000, 326.
18.32000, 314.
18.35000, 404.
18.38000, 371.
18.41000, 419.
18.44000, 472.
18.47000, 524.
18.50000, 534.
18.53000, 591.
18.56000, 630.
18.59000, 687.
18.62000, 689.
18.65000, 723.
18.68000, 839.
18.71000, 827.
18.74000, 900.
18.77000, 846.
18.80000, 933.
18.83000, 920.
18.86000, 878.
18.89000, 804.
18.92000, 772.
18.95000, 706.
18.98000, 724.
19.01000, 679.
19.04000, 621.
19.07000, 535.
19.10000, 528.
19.13000, 494.
19.16000, 448.
19.19000, 399.
19.22000, 413.
19.25000, 349.
19.28000, 312.
19.31000, 297.
19.34000, 271.
19.37000, 269.
19.40000, 269.
19.43000, 234.
19.46000, 220.
19.49000, 210.
19.52000, 216.
19.55000, 204.
19.58000, 182.
19.61000, 182.
19.64000, 191.
19.67000, 192.
19.70000, 171.
19.73000, 182.
19.76000, 155.
19.79000, 166.
19.82000, 163.
19.85000, 179.
19.88000, 194.
19.91000, 231.
19.94000, 285.
19.97000, 300.
20.00000, 327.
20.03000, 384.
20.06000, 482.
20.09000, 527.
20.12000, 559.
20.15000, 565.
20.18000, 536.
20.21000, 479.
20.24000, 461.
20.27000, 412.
20.30000, 281.
20.33000, 247.
20.36000, 194.
20.39000, 185.
20.42000, 162.
20.45000, 167.
20.48000, 163.
20.51000, 147.
20.54000, 151.
20.57000, 167.
20.60000, 161.
20.63000, 182.
20.66000, 182.
20.69000, 170.
20.72000, 199.
20.75000, 202.
20.78000, 233.
20.81000, 207.
20.84000, 204.
20.87000, 213.
20.90000, 218.
20.93000, 233.
20.96000, 195.
20.99000, 250.
21.02000, 233.
21.05000, 227.
21.08000, 240.
21.11000, 230.
21.14000, 224.
21.17000, 183.
21.20000, 230.
21.23000, 206.
21.26000, 194.
21.29000, 188.
21.32000, 187.
21.35000, 167.
21.38000, 167.
21.41000, 152.
21.44000, 152.
21.47000, 140.
21.50000, 169.
21.53000, 137.
21.56000, 129.
21.59000, 117.
21.62000, 130.
21.65000, 130.
21.68000, 117.
21.71000, 108.
21.74000, 106.
21.77000, 128.
21.80000, 112.
21.83000, 89.
21.86000, 89.
21.89000, 99.
21.92000, 98.
21.95000, 98.
21.98000, 99.
22.01000, 94.
22.04000, 74.
22.07000, 80.
22.10000, 118.
22.13000, 78.
22.16000, 96.
22.19000, 71.
22.22000, 85.
22.25000, 75.
22.28000, 75.
22.31000, 76.
22.34000, 68.
22.37000, 89.
22.40000, 94.
22.43000, 68.
22.46000, 74.
22.49000, 87.
22.52000, 106.
22.55000, 88.
22.58000, 121.
22.61000, 105.
22.64000, 123.
22.67000, 137.
22.70000, 129.
22.73000, 131.
22.76000, 144.
22.79000, 117.
22.82000, 119.
22.85000, 96.
22.88000, 89.
22.91000, 88.
22.94000, 80.
22.97000, 74.
23.00000, 76.
23.03000, 70.
23.06000, 74.
23.09000, 86.
23.12000, 73.
23.15000, 94.
23.18000, 81.
23.21000, 73.
23.24000, 65.
23.27000, 75.
23.30000, 71.
23.33000, 57.
23.36000, 76.
23.39000, 65.
23.42000, 63.
23.45000, 85.
23.48000, 64.
23.51000, 74.
23.54000, 58.
23.57000, 65.
23.60000, 64.
23.63000, 72.
23.66000, 78.
23.69000, 57.
23.72000, 60.
23.75000, 71.
23.78000, 61.
23.81000, 62.
23.84000, 61.
23.87000, 57.
23.90000, 71.
23.93000, 53.
23.96000, 64.
23.99000, 70.
24.02000, 56.
24.05000, 66.
24.08000, 56.
24.11000, 61.
24.14000, 65.
24.17000, 52.
24.20000, 62.
24.23000, 55.
24.26000, 62.
24.29000, 70.
24.32000, 61.
24.35000, 52.
24.38000, 53.
24.41000, 69.
24.44000, 68.
24.47000, 58.
24.50000, 64.
24.53000, 79.
24.56000, 61.
24.59000, 58.
24.62000, 57.
24.65000, 61.
24.68000, 64.
24.71000, 55.
24.74000, 60.
24.77000, 59.
24.80000, 71.
24.83000, 59.
24.86000, 68.
24.89000, 62.
24.92000, 76.
24.95000, 64.
24.98000, 64.
25.01000, 65.
25.04000, 56.
25.07000, 56.
25.10000, 58.
25.13000, 62.
25.16000, 78.
25.19000, 72.
25.22000, 66.
25.25000, 71.
25.28000, 76.
25.31000, 69.
25.34000, 58.
25.37000, 67.
25.40000, 50.
25.43000, 57.
25.46000, 69.
25.49000, 50.
25.52000, 52.
25.55000, 45.
25.58000, 73.
25.61000, 65.
25.64000, 71.
25.67000, 64.
25.70000, 49.
25.73000, 67.
25.76000, 49.
25.79000, 67.
25.82000, 55.
25.85000, 48.
25.88000, 68.
25.91000, 60.
25.94000, 59.
25.97000, 57.
26.00000, 54.
26.03000, 60.
26.06000, 65.
26.09000, 56.
26.12000, 57.
26.15000, 48.
26.18000, 57.
26.21000, 37.
26.24000, 52.
26.27000, 54.
26.30000, 60.
26.33000, 57.
26.36000, 53.
26.39000, 54.
26.42000, 54.
26.45000, 52.
26.48000, 49.
26.51000, 60.
26.54000, 66.
26.57000, 57.
26.60000, 49.
26.63000, 51.
26.66000, 66.
26.69000, 52.
26.72000, 47.
26.75000, 48.
26.78000, 49.
26.81000, 49.
26.84000, 46.
26.87000, 52.
26.90000, 51.
26.93000, 44.
26.96000, 40.
26.99000, 58.
27.02000, 55.
27.05000, 41.
27.08000, 51.
27.11000, 39.
27.14000, 55.
27.17000, 59.
27.20000, 40.
27.23000, 51.
27.26000, 54.
27.29000, 34.
27.32000, 53.
27.35000, 46.
27.38000, 42.
27.41000, 35.
27.44000, 55.
27.47000, 48.
27.50000, 61.
27.53000, 37.
27.56000, 46.
27.59000, 46.
27.62000, 64.
27.65000, 42.
27.68000, 51.
27.71000, 38.
27.74000, 59.
27.77000, 45.
27.80000, 53.
27.83000, 52.
27.86000, 48.
27.89000, 40.
27.92000, 38.
27.95000, 50.
27.98000, 48.
28.01000, 52.
28.04000, 46.
28.07000, 45.
28.10000, 37.
28.13000, 39.
28.16000, 43.
28.19000, 50.
28.22000, 50.
28.25000, 37.
28.28000, 24.
28.31000, 43.
28.34000, 41.
28.37000, 41.
28.40000, 31.
28.43000, 55.
28.46000, 45.
28.49000, 37.
28.52000, 29.
28.55000, 40.
28.58000, 46.
28.61000, 31.
28.64000, 37.
28.67000, 37.
28.70000, 42.
28.73000, 41.
28.76000, 35.
28.79000, 35.
28.82000, 34.
28.85000, 33.
28.88000, 36.
28.91000, 44.
28.94000, 41.
28.97000, 37.
29.00000, 25.
29.03000, 32.
29.06000, 44.
29.09000, 37.
29.12000, 44.
29.15000, 27.
29.18000, 36.
29.21000, 46.
29.24000, 40.
29.27000, 36.
29.30000, 34.
29.33000, 45.
29.36000, 41.
29.39000, 35.
29.42000, 42.
29.45000, 33.
29.48000, 37.
29.51000, 35.
29.54000, 37.
29.57000, 38.
29.60000, 36.
29.63000, 28.
29.66000, 39.
29.69000, 44.
29.72000, 32.
29.75000, 26.
29.78000, 44.
29.81000, 33.
29.84000, 42.
29.87000, 31.
29.90000, 40.
29.93000, 38.
29.96000, 27.
29.99000, 39.
30.02000, 26.
30.05000, 36.
30.08000, 39.
30.11000, 39.
30.14000, 42.
30.17000, 42.
30.20000, 30.
30.23000, 38.
30.26000, 28.
30.29000, 27.
30.32000, 35.
30.35000, 39.
30.38000, 35.
30.41000, 31.
30.44000, 43.
30.47000, 32.
30.50000, 38.
30.53000, 39.
30.56000, 33.
30.59000, 38.
30.62000, 24.
30.65000, 33.
30.68000, 27.
30.71000, 39.
30.74000, 38.
30.77000, 32.
30.80000, 21.
30.83000, 27.
30.86000, 24.
30.89000, 26.
30.92000, 41.
30.95000, 37.
30.98000, 29.
31.01000, 33.
31.04000, 29.
31.07000, 29.
31.10000, 35.
31.13000, 28.
31.16000, 25.
31.19000, 32.
31.22000, 22.
31.25000, 25.
31.28000, 25.
31.31000, 32.
31.34000, 30.
31.37000, 33.
31.40000, 32.
31.43000, 24.
31.46000, 31.
31.49000, 29.
31.52000, 31.
31.55000, 28.
31.58000, 31.
31.61000, 26.
31.64000, 37.
31.67000, 29.
31.70000, 20.
31.73000, 37.
31.76000, 28.
31.79000, 24.
31.82000, 27.
31.85000, 24.
31.88000, 24.
31.91000, 25.
31.94000, 25.
31.97000, 27.
32.00000, 27.
32.03000, 31.
32.06000, 26.
32.09000, 27.
32.12000, 24.
32.15000, 25.
32.18000, 32.
32.21000, 38.
32.24000, 30.
32.27000, 32.
32.30000, 28.
32.33000, 22.
32.36000, 36.
32.39000, 31.
32.42000, 25.
32.45000, 22.
32.48000, 14.
32.51000, 28.
32.54000, 17.
32.57000, 25.
32.60000, 26.
32.63000, 22.
32.66000, 25.
32.69000, 30.
32.72000, 17.
32.75000, 23.
32.78000, 25.
32.81000, 20.
32.84000, 33.
32.87000, 21.
32.90000, 22.
32.93000, 27.
32.96000, 22.
32.99000, 15.
33.02000, 26.
33.05000, 15.
33.08000, 24.
33.11000, 22.
33.14000, 28.
33.17000, 24.
33.20000, 23.
33.23000, 30.
33.26000, 28.
33.29000, 24.
33.32000, 22.
33.35000, 19.
33.38000, 26.
33.41000, 27.
33.44000, 25.
33.47000, 19.
33.50000, 15.
33.53000, 17.
33.56000, 22.
33.59000, 27.
33.62000, 18.
33.65000, 26.
33.68000, 18.
33.71000, 19.
33.74000, 24.
33.77000, 23.
33.80000, 23.
33.83000, 14.
33.86000, 18.
33.89000, 25.
33.92000, 20.
33.95000, 14.
33.98000, 22.
34.01000, 20.
34.04000, 19.
34.07000, 21.
34.10000, 21.
34.13000, 25.
34.16000, 27.
34.19000, 16.
34.22000, 22.
34.25000, 23.
34.28000, 25.
34.31000, 17.
34.34000, 19.
34.37000, 18.
34.40000, 14.
34.43000, 16.
34.46000, 14.
34.49000, 20.
34.52000, 19.
34.55000, 14.
34.58000, 15.
34.61000, 17.
34.64000, 18.
34.67000, 19.
34.70000, 19.
34.73000, 20.
34.76000, 17.
34.79000, 20.
34.82000, 10.
34.85000, 14.
34.88000, 17.
34.91000, 16.
34.94000, 17.
34.97000, 15.
35.00000, 14.
35.03000, 17.
35.06000, 14.
35.09000, 12.
35.12000, 16.
35.15000, 22.
35.18000, 14.
35.21000, 18.
35.24000, 22.
35.27000, 18.
35.30000, 18.
35.33000, 17.
35.36000, 14.
35.39000, 18.
35.42000, 22.
35.45000, 13.
35.48000, 19.
35.51000, 21.
35.54000, 11.
35.57000, 13.
35.60000, 16.
35.63000, 12.
35.66000, 11.
35.69000, 7.
35.72000, 14.
35.75000, 9.
35.78000, 13.
35.81000, 19.
35.84000, 13.
35.87000, 17.
35.90000, 19.
35.93000, 11.
35.96000, 16.
35.99000, 13.
36.02000, 18.
36.05000, 15.
36.08000, 10.
36.11000, 10.
36.14000, 11.
36.17000, 21.
36.20000, 12.
36.23000, 14.
36.26000, 14.
36.29000, 10.
36.32000, 10.
36.35000, 18.
36.38000, 9.
36.41000, 13.
36.44000, 15.
36.47000, 10.
36.50000, 14.
36.53000, 13.
36.56000, 15.
36.59000, 12.
36.62000, 12.
36.65000, 19.
36.68000, 14.
36.71000, 13.
36.74000, 8.
36.77000, 15.
36.80000, 12.
36.83000, 14.
36.86000, 12.
36.89000, 9.
36.92000, 11.
36.95000, 14.
36.98000, 14.
37.01000, 11.
37.04000, 11.
37.07000, 12.
37.10000, 4.
37.13000, 7.
37.16000, 9.
37.19000, 10.
37.22000, 10.
37.25000, 13.
37.28000, 10.
37.31000, 11.
37.34000, 7.
37.37000, 7.
37.40000, 13.
37.43000, 11.
37.46000, 10.
37.49000, 13.
37.52000, 11.
37.55000, 10.
37.58000, 13.
37.61000, 10.
37.64000, 14.
37.67000, 13.
37.70000, 8.
37.73000, 10.
37.76000, 6.
37.79000, 9.
37.82000, 9.
37.85000, 12.
37.88000, 14.
37.91000, 10.
37.94000, 8.
37.97000, 5.
38.00000, 9.
38.03000, 12.
38.06000, 8.
38.09000, 10.
38.12000, 8.
38.15000, 12.
38.18000, 8.
38.21000, 7.
38.24000, 5.
38.27000, 7.
38.30000, 7.
38.33000, 9.
38.36000, 6.
38.39000, 12.
38.42000, 7.
38.45000, 9.
38.48000, 6.
38.51000, 8.
38.54000, 8.
38.57000, 4.
38.60000, 6.
38.63000, 8.
38.66000, 5.
38.69000, 11.
38.72000, 7.
38.75000, 5.
38.78000, 8.
38.81000, 14.
38.84000, 2.
38.87000, 8.
38.90000, 6.
38.93000, 7.
38.96000, 7.
38.99000, 4.
39.02000, 8.
39.05000, 5.
39.08000, 2.
39.11000, 4.
39.14000, 7.
39.17000, 5.
39.20000, 8.
39.23000, 9.
39.26000, 7.
39.29000, 4.
39.32000, 11.
39.35000, 6.
39.38000, 5.
39.41000, 4.
39.44000, 3.
39.47000, 5.
39.50000, 3.
39.53000, 7.
39.56000, 3.
39.59000, 10.
39.62000, 4.
39.65000, 8.
39.68000, 5.
39.71000, 5.
39.74000, 4.
39.77000, 7.
39.80000, 10.
39.83000, 8.
39.86000, 8.
39.89000, 4.
39.92000, 3.
39.95000, 6.
39.98000, 3.
40.01000, 1.
40.04000, 5.
40.07000, 8.
40.10000, 3.
40.13000, 5.
40.16000, 4.
40.19000, 4.
40.22000, 11.
40.25000, 5.
40.28000, 2.
40.31000, 2.
40.34000, 7.
40.37000, 5.
40.40000, 1.
40.43000, 6.
40.46000, 5.
40.49000, 4.
40.52000, 2.
40.55000, 0.
#ENDOFDATA   :