File: sample_data/data/Spectrum value from standard/Nist 2586/Spectrum 29.txt
#FORMAT      : EMSA/MAS Spectral Data File
#VERSION     : 1.0
#TITLE       : Spectrum 29
#DATE        : 21-AUG-2025
#TIME        : 15:33
#OWNER       : XGT7200
#NPOINTS     : 4096.
#NCOLUMNS    : 1.
#XUNITS      : keV
#YUNITS      : counts
#DATATYPE    : XY
#XPERCHAN    : 0.0100000
#OFFSET      : -0.400000
#SIGNALTYPE  : EDS
#CHOFFSET    : 40.0000
#LIVETIME    : 30
#REALTIME    : 39.665
#BEAMKV      : 50.0000
#PROBECUR    : 664000.
#MAGCAM      : 100.000
#XTILTSTGE   : 0.0
#AZIMANGLE   : 0.0
#ELEVANGLE   : 45.0
#XPOSITION mm: 0.0000
#YPOSITION mm: 0.0000
#ZPOSITION mm: 0.0000
##OXINSTPT   : 4
##OXINSTSTROB: 72.08
#SPECTRUM    : Spectral Data Starts Here
-0.40000, 0.
-0.37000, 0.
-0.34000, 0.
-0.31000, 0.
-0.28000, 0.
-0.25000, 0.
-0.22000, 0.
-0.19000, 0.
-0.16000, 0.
-0.13000, 0.
-0.10000, 0.
-0.07000, 0.
-0.04000, 0.
-0.01000, 0.
0.02000, 0.
0.05000, 0.
0.08000, 0.
0.11000, 0.
0.14000, 0.
0.17000, 0.
0.20000, 0.
0.23000, 0.
0.26000, 0.
0.29000, 0.
0.32000, 2.
0.35000, 3.
0.38000, 12.
0.41000, 22.
0.44000, 35.
0.47000, 43.
0.50000, 44.
0.53000, 38.
0.56000, 57.
0.59000, 32.
0.62000, 38.
0.65000, 32.
0.68000, 35.
0.71000, 38.
0.74000, 32.
0.77000, 31.
0.80000, 39.
0.83000, 37.
0.86000, 48.
0.89000, 37.
0.92000, 49.
0.95000, 43.
0.98000, 42.
1.01000, 30.
1.04000, 43.
1.07000, 43.
1.10000, 48.
1.13000, 37.
1.16000, 27.
1.19000, 52.
1.22000, 53.
1.25000, 76.
1.28000, 87.
1.31000, 48.
1.34000, 36.
1.37000, 50.
1.40000, 80.
1.43000, 281.
1.46000, 533.
1.49000, 784.
1.52000, 613.
1.55000, 333.
1.58000, 136.
1.61000, 114.
1.64000, 321.
1.67000, 1184.
1.70000, 3389.
1.73000, 5670.
1.76000, 5746.
1.79000, 3761.
1.82000, 1577.
1.85000, 560.
1.88000, 237.
1.91000, 102.
1.94000, 67.
1.97000, 69.
2.00000, 58.
2.03000, 51.
2.06000, 60.
2.09000, 41.
2.12000, 39.
2.15000, 32.
2.18000, 34.
2.21000, 28.
2.24000, 46.
2.27000, 49.
2.30000, 61.
2.33000, 63.
2.36000, 62.
2.39000, 54.
2.42000, 39.
2.45000, 37.
2.48000, 30.
2.51000, 30.
2.54000, 53.
2.57000, 69.
2.60000, 115.
2.63000, 263.
2.66000, 407.
2.69000, 601.
2.72000, 603.
2.75000, 421.
2.78000, 283.
2.81000, 277.
2.84000, 262.
2.87000, 276.
2.90000, 189.
2.93000, 122.
2.96000, 102.
2.99000, 76.
3.02000, 64.
3.05000, 54.
3.08000, 35.
3.11000, 31.
3.14000, 37.
3.17000, 34.
3.20000, 49.
3.23000, 105.
3.26000, 216.
3.29000, 369.
3.32000, 480.
3.35000, 344.
3.38000, 192.
3.41000, 114.
3.44000, 48.
3.47000, 53.
3.50000, 54.
3.53000, 69.
3.56000, 107.
3.59000, 250.
3.62000, 531.
3.65000, 953.
3.68000, 1339.
3.71000, 1327.
3.74000, 934.
3.77000, 462.
3.80000, 203.
3.83000, 53.
3.86000, 42.
3.89000, 40.
3.92000, 60.
3.95000, 126.
3.98000, 195.
4.01000, 199.
4.04000, 232.
4.07000, 164.
4.10000, 84.
4.13000, 49.
4.16000, 27.
4.19000, 34.
4.22000, 34.
4.25000, 17.
4.28000, 25.
4.31000, 30.
4.34000, 34.
4.37000, 50.
4.40000, 133.
4.43000, 281.
4.46000, 548.
4.49000, 721.
4.52000, 863.
4.55000, 620.
4.58000, 423.
4.61000, 220.
4.64000, 140.
4.67000, 102.
4.70000, 89.
4.73000, 74.
4.76000, 61.
4.79000, 57.
4.82000, 94.
4.85000, 107.
4.88000, 121.
4.91000, 184.
4.94000, 196.
4.97000, 167.
5.00000, 130.
5.03000, 75.
5.06000, 57.
5.09000, 53.
5.12000, 55.
5.15000, 40.
5.18000, 58.
5.21000, 58.
5.24000, 58.
5.27000, 60.
5.30000, 89.
5.33000, 89.
5.36000, 85.
5.39000, 118.
5.42000, 131.
5.45000, 103.
5.48000, 81.
5.51000, 84.
5.54000, 54.
5.57000, 72.
5.60000, 55.
5.63000, 60.
5.66000, 50.
5.69000, 50.
5.72000, 59.
5.75000, 60.
5.78000, 102.
5.81000, 132.
5.84000, 213.
5.87000, 276.
5.90000, 324.
5.93000, 314.
5.96000, 205.
5.99000, 146.
6.02000, 101.
6.05000, 101.
6.08000, 99.
6.11000, 93.
6.14000, 112.
6.17000, 155.
6.20000, 242.
6.23000, 526.
6.26000, 1409.
6.29000, 3595.
6.32000, 7208.
6.35000, 12213.
6.38000, 15844.
6.41000, 16541.
6.44000, 13755.
6.47000, 8840.
6.50000, 4486.
6.53000, 1871.
6.56000, 643.
6.59000, 282.
6.62000, 110.
6.65000, 119.
6.68000, 109.
6.71000, 99.
6.74000, 107.
6.77000, 126.
6.80000, 124.
6.83000, 137.
6.86000, 142.
6.89000, 241.
6.92000, 446.
6.95000, 847.
6.98000, 1515.
7.01000, 2163.
7.04000, 2630.
7.07000, 2654.
7.10000, 2162.
7.13000, 1400.
7.16000, 733.
7.19000, 371.
7.22000, 180.
7.25000, 93.
7.28000, 75.
7.31000, 75.
7.34000, 75.
7.37000, 94.
7.40000, 87.
7.43000, 85.
7.46000, 95.
7.49000, 82.
7.52000, 82.
7.55000, 74.
7.58000, 66.
7.61000, 64.
7.64000, 85.
7.67000, 69.
7.70000, 51.
7.73000, 58.
7.76000, 71.
7.79000, 76.
7.82000, 95.
7.85000, 79.
7.88000, 109.
7.91000, 99.
7.94000, 123.
7.97000, 139.
8.00000, 146.
8.03000, 160.
8.06000, 148.
8.09000, 170.
8.12000, 161.
8.15000, 125.
8.18000, 141.
8.21000, 102.
8.24000, 117.
8.27000, 121.
8.30000, 91.
8.33000, 99.
8.36000, 97.
8.39000, 106.
8.42000, 111.
8.45000, 103.
8.48000, 110.
8.51000, 145.
8.54000, 188.
8.57000, 213.
8.60000, 281.
8.63000, 310.
8.66000, 289.
8.69000, 206.
8.72000, 184.
8.75000, 151.
8.78000, 130.
8.81000, 115.
8.84000, 112.
8.87000, 130.
8.90000, 103.
8.93000, 112.
8.96000, 123.
8.99000, 124.
9.02000, 95.
9.05000, 122.
9.08000, 106.
9.11000, 132.
9.14000, 125.
9.17000, 124.
9.20000, 125.
9.23000, 146.
9.26000, 120.
9.29000, 115.
9.32000, 106.
9.35000, 104.
9.38000, 130.
9.41000, 113.
9.44000, 127.
9.47000, 128.
9.50000, 124.
9.53000, 109.
9.56000, 146.
9.59000, 161.
9.62000, 137.
9.65000, 126.
9.68000, 131.
9.71000, 111.
9.74000, 135.
9.77000, 108.
9.80000, 117.
9.83000, 114.
9.86000, 119.
9.89000, 110.
9.92000, 94.
9.95000, 114.
9.98000, 111.
10.01000, 118.
10.04000, 114.
10.07000, 118.
10.10000, 129.
10.13000, 136.
10.16000, 122.
10.19000, 118.
10.22000, 124.
10.25000, 129.
10.28000, 120.
10.31000, 111.
10.34000, 111.
10.37000, 142.
10.40000, 170.
10.43000, 179.
10.46000, 187.
10.49000, 237.
10.52000, 246.
10.55000, 254.
10.58000, 215.
10.61000, 221.
10.64000, 165.
10.67000, 164.
10.70000, 125.
10.73000, 137.
10.76000, 118.
10.79000, 133.
10.82000, 113.
10.85000, 134.
10.88000, 131.
10.91000, 123.
10.94000, 139.
10.97000, 136.
11.00000, 110.
11.03000, 151.
11.06000, 136.
11.09000, 140.
11.12000, 113.
11.15000, 140.
11.18000, 131.
11.21000, 128.
11.24000, 103.
11.27000, 143.
11.30000, 139.
11.33000, 131.
11.36000, 124.
11.39000, 149.
11.42000, 140.
11.45000, 127.
11.48000, 136.
11.51000, 132.
11.54000, 137.
11.57000, 138.
11.60000, 122.
11.63000, 140.
11.66000, 140.
11.69000, 155.
11.72000, 132.
11.75000, 135.
11.78000, 135.
11.81000, 128.
11.84000, 146.
11.87000, 129.
11.90000, 128.
11.93000, 143.
11.96000, 146.
11.99000, 140.
12.02000, 155.
12.05000, 149.
12.08000, 148.
12.11000, 126.
12.14000, 123.
12.17000, 144.
12.20000, 140.
12.23000, 159.
12.26000, 148.
12.29000, 169.
12.32000, 149.
12.35000, 153.
12.38000, 143.
12.41000, 150.
12.44000, 144.
12.47000, 180.
12.50000, 194.
12.53000, 199.
12.56000, 238.
12.59000, 248.
12.62000, 252.
12.65000, 265.
12.68000, 251.
12.71000, 208.
12.74000, 229.
12.77000, 220.
12.80000, 165.
12.83000, 208.
12.86000, 212.
12.89000, 194.
12.92000, 141.
12.95000, 161.
12.98000, 131.
13.01000, 157.
13.04000, 150.
13.07000, 154.
13.10000, 155.
13.13000, 141.
13.16000, 138.
13.19000, 148.
13.22000, 150.
13.25000, 168.
13.28000, 171.
13.31000, 194.
13.34000, 218.
13.37000, 187.
13.40000, 203.
13.43000, 192.
13.46000, 204.
13.49000, 186.
13.52000, 162.
13.55000, 161.
13.58000, 143.
13.61000, 165.
13.64000, 142.
13.67000, 155.
13.70000, 166.
13.73000, 146.
13.76000, 155.
13.79000, 152.
13.82000, 140.
13.85000, 140.
13.88000, 140.
13.91000, 160.
13.94000, 177.
13.97000, 153.
14.00000, 178.
14.03000, 178.
14.06000, 202.
14.09000, 202.
14.12000, 184.
14.15000, 258.
14.18000, 222.
14.21000, 180.
14.24000, 175.
14.27000, 173.
14.30000, 151.
14.33000, 149.
14.36000, 160.
14.39000, 146.
14.42000, 151.
14.45000, 148.
14.48000, 149.
14.51000, 143.
14.54000, 148.
14.57000, 146.
14.60000, 126.
14.63000, 167.
14.66000, 162.
14.69000, 151.
14.72000, 179.
14.75000, 152.
14.78000, 173.
14.81000, 177.
14.84000, 198.
14.87000, 167.
14.90000, 181.
14.93000, 191.
14.96000, 170.
14.99000, 187.
15.02000, 162.
15.05000, 142.
15.08000, 163.
15.11000, 166.
15.14000, 138.
15.17000, 154.
15.20000, 115.
15.23000, 141.
15.26000, 168.
15.29000, 144.
15.32000, 162.
15.35000, 117.
15.38000, 142.
15.41000, 144.
15.44000, 127.
15.47000, 138.
15.50000, 166.
15.53000, 159.
15.56000, 202.
15.59000, 220.
15.62000, 260.
15.65000, 314.
15.68000, 322.
15.71000, 361.
15.74000, 376.
15.77000, 369.
15.80000, 336.
15.83000, 271.
15.86000, 259.
15.89000, 229.
15.92000, 155.
15.95000, 152.
15.98000, 149.
16.01000, 147.
16.04000, 142.
16.07000, 168.
16.10000, 131.
16.13000, 140.
16.16000, 138.
16.19000, 144.
16.22000, 127.
16.25000, 146.
16.28000, 133.
16.31000, 125.
16.34000, 149.
16.37000, 140.
16.40000, 157.
16.43000, 164.
16.46000, 141.
16.49000, 153.
16.52000, 128.
16.55000, 142.
16.58000, 158.
16.61000, 155.
16.64000, 143.
16.67000, 152.
16.70000, 144.
16.73000, 136.
16.76000, 152.
16.79000, 122.
16.82000, 163.
16.85000, 137.
16.88000, 123.
16.91000, 163.
16.94000, 126.
16.97000, 142.
17.00000, 133.
17.03000, 117.
17.06000, 123.
17.09000, 170.
17.12000, 152.
17.15000, 143.
17.18000, 159.
17.21000, 145.
17.24000, 151.
17.27000, 156.
17.30000, 138.
17.33000, 150.
17.36000, 125.
17.39000, 156.
17.42000, 146.
17.45000, 173.
17.48000, 173.
17.51000, 178.
17.54000, 186.
17.57000, 218.
17.60000, 194.
17.63000, 217.
17.66000, 215.
17.69000, 185.
17.72000, 191.
17.75000, 217.
17.78000, 188.
17.81000, 210.
17.84000, 190.
17.87000, 203.
17.90000, 188.
17.93000, 206.
17.96000, 205.
17.99000, 190.
18.02000, 191.
18.05000, 219.
18.08000, 226.
18.11000, 262.
18.14000, 269.
18.17000, 232.
18.20000, 241.
18.23000, 267.
18.26000, 268.
18.29000, 328.
18.32000, 368.
18.35000, 323.
18.38000, 388.
18.41000, 434.
18.44000, 459.
18.47000, 521.
18.50000, 565.
18.53000, 604.
18.56000, 637.
18.59000, 712.
18.62000, 714.
18.65000, 780.
18.68000, 832.
18.71000, 831.
18.74000, 870.
18.77000, 888.
18.80000, 881.
18.83000, 905.
18.86000, 886.
18.89000, 795.
18.92000, 781.
18.95000, 709.
18.98000, 711.
19.01000, 700.
19.04000, 634.
19.07000, 552.
19.10000, 550.
19.13000, 487.
19.16000, 441.
19.19000, 372.
19.22000, 378.
19.25000, 340.
19.28000, 302.
19.31000, 302.
19.34000, 292.
19.37000, 264.
19.40000, 244.
19.43000, 215.
19.46000, 226.
19.49000, 200.
19.52000, 228.
19.55000, 201.
19.58000, 192.
19.61000, 193.
19.64000, 160.
19.67000, 174.
19.70000, 169.
19.73000, 149.
19.76000, 173.
19.79000, 129.
19.82000, 171.
19.85000, 180.
19.88000, 181.
19.91000, 231.
19.94000, 250.
19.97000, 301.
20.00000, 361.
20.03000, 416.
20.06000, 471.
20.09000, 435.
20.12000, 529.
20.15000, 528.
20.18000, 464.
20.21000, 473.
20.24000, 428.
20.27000, 355.
20.30000, 316.
20.33000, 253.
20.36000, 195.
20.39000, 147.
20.42000, 147.
20.45000, 164.
20.48000, 167.
20.51000, 146.
20.54000, 145.
20.57000, 145.
20.60000, 157.
20.63000, 161.
20.66000, 171.
20.69000, 190.
20.72000, 196.
20.75000, 182.
20.78000, 211.
20.81000, 197.
20.84000, 187.
20.87000, 235.
20.90000, 238.
20.93000, 234.
20.96000, 227.
20.99000, 220.
21.02000, 220.
21.05000, 240.
21.08000, 213.
21.11000, 207.
21.14000, 218.
21.17000, 198.
21.20000, 189.
21.23000, 216.
21.26000, 172.
21.29000, 161.
21.32000, 158.
21.35000, 167.
21.38000, 167.
21.41000, 175.
21.44000, 150.
21.47000, 166.
21.50000, 147.
21.53000, 130.
21.56000, 118.
21.59000, 133.
21.62000, 127.
21.65000, 114.
21.68000, 104.
21.71000, 102.
21.74000, 108.
21.77000, 124.
21.80000, 103.
21.83000, 100.
21.86000, 96.
21.89000, 108.
21.92000, 85.
21.95000, 82.
21.98000, 85.
22.01000, 89.
22.04000, 90.
22.07000, 93.
22.10000, 92.
22.13000, 90.
22.16000, 86.
22.19000, 90.
22.22000, 83.
22.25000, 81.
22.28000, 77.
22.31000, 75.
22.34000, 79.
22.37000, 86.
22.40000, 82.
22.43000, 68.
22.46000, 86.
22.49000, 103.
22.52000, 87.
22.55000, 104.
22.58000, 120.
22.61000, 138.
22.64000, 127.
22.67000, 112.
22.70000, 134.
22.73000, 138.
22.76000, 121.
22.79000, 112.
22.82000, 95.
22.85000, 77.
22.88000, 99.
22.91000, 72.
22.94000, 81.
22.97000, 75.
23.00000, 89.
23.03000, 96.
23.06000, 70.
23.09000, 84.
23.12000, 87.
23.15000, 69.
23.18000, 78.
23.21000, 78.
23.24000, 63.
23.27000, 62.
23.30000, 68.
23.33000, 81.
23.36000, 67.
23.39000, 66.
23.42000, 75.
23.45000, 69.
23.48000, 65.
23.51000, 51.
23.54000, 55.
23.57000, 62.
23.60000, 66.
23.63000, 56.
23.66000, 76.
23.69000, 61.
23.72000, 53.
23.75000, 71.
23.78000, 66.
23.81000, 71.
23.84000, 63.
23.87000, 62.
23.90000, 60.
23.93000, 65.
23.96000, 63.
23.99000, 64.
24.02000, 59.
24.05000, 57.
24.08000, 74.
24.11000, 66.
24.14000, 54.
24.17000, 65.
24.20000, 58.
24.23000, 65.
24.26000, 65.
24.29000, 49.
24.32000, 68.
24.35000, 71.
24.38000, 66.
24.41000, 61.
24.44000, 54.
24.47000, 64.
24.50000, 53.
24.53000, 61.
24.56000, 56.
24.59000, 62.
24.62000, 63.
24.65000, 76.
24.68000, 54.
24.71000, 67.
24.74000, 66.
24.77000, 80.
24.80000, 53.
24.83000, 59.
24.86000, 57.
24.89000, 77.
24.92000, 66.
24.95000, 55.
24.98000, 67.
25.01000, 70.
25.04000, 74.
25.07000, 55.
25.10000, 60.
25.13000, 73.
25.16000, 69.
25.19000, 59.
25.22000, 63.
25.25000, 57.
25.28000, 60.
25.31000, 66.
25.34000, 61.
25.37000, 57.
25.40000, 79.
25.43000, 44.
25.46000, 55.
25.49000, 57.
25.52000, 58.
25.55000, 57.
25.58000, 60.
25.61000, 58.
25.64000, 56.
25.67000, 58.
25.70000, 59.
25.73000, 56.
25.76000, 57.
25.79000, 48.
25.82000, 48.
25.85000, 55.
25.88000, 43.
25.91000, 56.
25.94000, 64.
25.97000, 45.
26.00000, 63.
26.03000, 55.
26.06000, 48.
26.09000, 45.
26.12000, 47.
26.15000, 58.
26.18000, 53.
26.21000, 54.
26.24000, 55.
26.27000, 56.
26.30000, 58.
26.33000, 66.
26.36000, 40.
26.39000, 47.
26.42000, 50.
26.45000, 49.
26.48000, 56.
26.51000, 62.
26.54000, 45.
26.57000, 62.
26.60000, 44.
26.63000, 55.
26.66000, 56.
26.69000, 58.
26.72000, 49.
26.75000, 38.
26.78000, 39.
26.81000, 66.
26.84000, 45.
26.87000, 47.
26.90000, 34.
26.93000, 34.
26.96000, 42.
26.99000, 53.
27.02000, 50.
27.05000, 45.
27.08000, 46.
27.11000, 49.
27.14000, 36.
27.17000, 43.
27.20000, 58.
27.23000, 42.
27.26000, 46.
27.29000, 41.
27.32000, 47.
27.35000, 47.
27.38000, 46.
27.41000, 48.
27.44000, 42.
27.47000, 54.
27.50000, 48.
27.53000, 47.
27.56000, 47.
27.59000, 47.
27.62000, 37.
27.65000, 50.
27.68000, 50.
27.71000, 34.
27.74000, 48.
27.77000, 49.
27.80000, 43.
27.83000, 33.
27.86000, 51.
27.89000, 28.
27.92000, 41.
27.95000, 41.
27.98000, 44.
28.01000, 44.
28.04000, 36.
28.07000, 50.
28.10000, 40.
28.13000, 45.
28.16000, 41.
28.19000, 29.
28.22000, 40.
28.25000, 44.
28.28000, 52.
28.31000, 45.
28.34000, 43.
28.37000, 48.
28.40000, 34.
28.43000, 39.
28.46000, 48.
28.49000, 42.
28.52000, 37.
28.55000, 47.
28.58000, 39.
28.61000, 46.
28.64000, 33.
28.67000, 42.
28.70000, 40.
28.73000, 32.
28.76000, 44.
28.79000, 41.
28.82000, 51.
28.85000, 26.
28.88000, 36.
28.91000, 35.
28.94000, 43.
28.97000, 28.
29.00000, 43.
29.03000, 35.
29.06000, 36.
29.09000, 46.
29.12000, 37.
29.15000, 43.
29.18000, 39.
29.21000, 26.
29.24000, 32.
29.27000, 41.
29.30000, 45.
29.33000, 36.
29.36000, 30.
29.39000, 38.
29.42000, 39.
29.45000, 46.
29.48000, 22.
29.51000, 33.
29.54000, 35.
29.57000, 27.
29.60000, 26.
29.63000, 24.
29.66000, 41.
29.69000, 31.
29.72000, 32.
29.75000, 29.
29.78000, 34.
29.81000, 23.
29.84000, 29.
29.87000, 35.
29.90000, 22.
29.93000, 26.
29.96000, 21.
29.99000, 24.
30.02000, 32.
30.05000, 32.
30.08000, 25.
30.11000, 33.
30.14000, 34.
30.17000, 39.
30.20000, 22.
30.23000, 42.
30.26000, 39.
30.29000, 41.
30.32000, 31.
30.35000, 36.
30.38000, 35.
30.41000, 28.
30.44000, 33.
30.47000, 20.
30.50000, 29.
30.53000, 34.
30.56000, 28.
30.59000, 38.
30.62000, 31.
30.65000, 31.
30.68000, 36.
30.71000, 33.
30.74000, 26.
30.77000, 37.
30.80000, 21.
30.83000, 33.
30.86000, 33.
30.89000, 25.
30.92000, 35.
30.95000, 33.
30.98000, 29.
31.01000, 28.
31.04000, 39.
31.07000, 39.
31.10000, 28.
31.13000, 29.
31.16000, 41.
31.19000, 26.
31.22000, 27.
31.25000, 33.
31.28000, 28.
31.31000, 29.
31.34000, 28.
31.37000, 32.
31.40000, 21.
31.43000, 20.
31.46000, 26.
31.49000, 28.
31.52000, 27.
31.55000, 31.
31.58000, 23.
31.61000, 34.
31.64000, 23.
31.67000, 31.
31.70000, 29.
31.73000, 28.
31.76000, 39.
31.79000, 31.
31.82000, 23.
31.85000, 26.
31.88000, 34.
31.91000, 28.
31.94000, 22.
31.97000, 35.
32.00000, 27.
32.03000, 32.
32.06000, 26.
32.09000, 36.
32.12000, 26.
32.15000, 29.
32.18000, 33.
32.21000, 26.
32.24000, 32.
32.27000, 33.
32.30000, 25.
32.33000, 22.
32.36000, 32.
32.39000, 23.
32.42000, 36.
32.45000, 21.
32.48000, 27.
32.51000, 30.
32.54000, 29.
32.57000, 14.
32.60000, 19.
32.63000, 9.
32.66000, 23.
32.69000, 19.
32.72000, 25.
32.75000, 17.
32.78000, 26.
32.81000, 18.
32.84000, 25.
32.87000, 28.
32.90000, 31.
32.93000, 20.
32.96000, 19.
32.99000, 23.
33.02000, 23.
33.05000, 21.
33.08000, 24.
33.11000, 16.
33.14000, 20.
33.17000, 13.
33.20000, 26.
33.23000, 21.
33.26000, 28.
33.29000, 17.
33.32000, 23.
33.35000, 20.
33.38000, 28.
33.41000, 13.
33.44000, 27.
33.47000, 26.
33.50000, 23.
33.53000, 19.
33.56000, 22.
33.59000, 14.
33.62000, 14.
33.65000, 16.
33.68000, 17.
33.71000, 14.
33.74000, 15.
33.77000, 18.
33.80000, 17.
33.83000, 18.
33.86000, 21.
33.89000, 14.
33.92000, 14.
33.95000, 24.
33.98000, 29.
34.01000, 13.
34.04000, 19.
34.07000, 19.
34.10000, 19.
34.13000, 16.
34.16000, 27.
34.19000, 16.
34.22000, 23.
34.25000, 20.
34.28000, 17.
34.31000, 23.
34.34000, 26.
34.37000, 22.
34.40000, 15.
34.43000, 14.
34.46000, 19.
34.49000, 13.
34.52000, 20.
34.55000, 15.
34.58000, 17.
34.61000, 19.
34.64000, 19.
34.67000, 12.
34.70000, 13.
34.73000, 14.
34.76000, 15.
34.79000, 15.
34.82000, 19.
34.85000, 24.
34.88000, 17.
34.91000, 15.
34.94000, 15.
34.97000, 15.
35.00000, 17.
35.03000, 18.
35.06000, 15.
35.09000, 15.
35.12000, 18.
35.15000, 21.
35.18000, 18.
35.21000, 17.
35.24000, 20.
35.27000, 20.
35.30000, 16.
35.33000, 12.
35.36000, 17.
35.39000, 7.
35.42000, 9.
35.45000, 11.
35.48000, 9.
35.51000, 18.
35.54000, 14.
35.57000, 16.
35.60000, 18.
35.63000, 9.
35.66000, 12.
35.69000, 19.
35.72000, 15.
35.75000, 17.
35.78000, 14.
35.81000, 11.
35.84000, 12.
35.87000, 13.
35.90000, 10.
35.93000, 18.
35.96000, 20.
35.99000, 4.
36.02000, 11.
36.05000, 11.
36.08000, 14.
36.11000, 15.
36.14000, 15.
36.17000, 16.
36.20000, 18.
36.23000, 13.
36.26000, 10.
36.29000, 10.
36.32000, 13.
36.35000, 10.
36.38000, 14.
36.41000, 15.
36.44000, 10.
36.47000, 16.
36.50000, 12.
36.53000, 14.
36.56000, 13.
36.59000, 12.
36.62000, 14.
36.65000, 8.
36.68000, 12.
36.71000, 12.
36.74000, 10.
36.77000, 11.
36.80000, 12.
36.83000, 9.
36.86000, 12.
36.89000, 11.
36.92000, 13.
36.95000, 12.
36.98000, 10.
37.01000, 8.
37.04000, 12.
37.07000, 15.
37.10000, 11.
37.13000, 11.
37.16000, 12.
37.19000, 13.
37.22000, 11.
37.25000, 8.
37.28000, 14.
37.31000, 12.
37.34000, 11.
37.37000, 8.
37.40000, 9.
37.43000, 11.
37.46000, 10.
37.49000, 10.
37.52000, 11.
37.55000, 12.
37.58000, 7.
37.61000, 13.
37.64000, 6.
37.67000, 3.
37.70000, 11.
37.73000, 11.
37.76000, 10.
37.79000, 5.
37.82000, 10.
37.85000, 8.
37.88000, 8.
37.91000, 11.
37.94000, 7.
37.97000, 7.
38.00000, 8.
38.03000, 8.
38.06000, 7.
38.09000, 8.
38.12000, 6.
38.15000, 10.
38.18000, 7.
38.21000, 10.
38.24000, 8.
38.27000, 9.
38.30000, 6.
38.33000, 4.
38.36000, 10.
38.39000, 9.
38.42000, 7.
38.45000, 9.
38.48000, 4.
38.51000, 6.
38.54000, 7.
38.57000, 9.
38.60000, 3.
38.63000, 11.
38.66000, 6.
38.69000, 7.
38.72000, 10.
38.75000, 7.
38.78000, 9.
38.81000, 13.
38.84000, 6.
38.87000, 4.
38.90000, 6.
38.93000, 5.
38.96000, 7.
38.99000, 4.
39.02000, 6.
39.05000, 5.
39.08000, 5.
39.11000, 7.
39.14000, 7.
39.17000, 3.
39.20000, 8.
39.23000, 4.
39.26000, 8.
39.29000, 2.
39.32000, 3.
39.35000, 3.
39.38000, 5.
39.41000, 5.
39.44000, 4.
39.47000, 7.
39.50000, 8.
39.53000, 9.
39.56000, 6.
39.59000, 5.
39.62000, 5.
39.65000, 4.
39.68000, 6.
39.71000, 4.
39.74000, 9.
39.77000, 9.
39.80000, 5.
39.83000, 4.
39.86000, 5.
39.89000, 4.
39.92000, 9.
39.95000, 3.
39.98000, 5.
40.01000, 6.
40.04000, 3.
40.07000, 2.
40.10000, 5.
40.13000, 2.
40.16000, 3.
40.19000, 5.
40.22000, 6.
40.25000, 6.
40.28000, 3.
40.31000, 5.
40.34000, 6.
40.37000, 7.
40.40000, 6.
40.43000, 5.
40.46000, 5.
40.49000, 4.
40.52000, 8.
40.55000, 0.
#ENDOFDATA   :