File: sample_data/data/Spectrum value from standard/Nist 2586/Spectrum 25.txt
#FORMAT      : EMSA/MAS Spectral Data File
#VERSION     : 1.0
#TITLE       : Spectrum 25
#DATE        : 21-AUG-2025
#TIME        : 15:29
#OWNER       : XGT7200
#NPOINTS     : 4096.
#NCOLUMNS    : 1.
#XUNITS      : keV
#YUNITS      : counts
#DATATYPE    : XY
#XPERCHAN    : 0.0100000
#OFFSET      : -0.400000
#SIGNALTYPE  : EDS
#CHOFFSET    : 40.0000
#LIVETIME    : 30
#REALTIME    : 39.6969
#BEAMKV      : 50.0000
#PROBECUR    : 673000.
#MAGCAM      : 100.000
#XTILTSTGE   : 0.0
#AZIMANGLE   : 0.0
#ELEVANGLE   : 45.0
#XPOSITION mm: 0.0000
#YPOSITION mm: 0.0000
#ZPOSITION mm: 0.0000
##OXINSTPT   : 4
##OXINSTSTROB: 71.77
#SPECTRUM    : Spectral Data Starts Here
-0.40000, 0.
-0.37000, 0.
-0.34000, 0.
-0.31000, 0.
-0.28000, 0.
-0.25000, 0.
-0.22000, 0.
-0.19000, 0.
-0.16000, 0.
-0.13000, 0.
-0.10000, 0.
-0.07000, 0.
-0.04000, 0.
-0.01000, 0.
0.02000, 0.
0.05000, 0.
0.08000, 0.
0.11000, 0.
0.14000, 0.
0.17000, 0.
0.20000, 0.
0.23000, 0.
0.26000, 0.
0.29000, 0.
0.32000, 0.
0.35000, 2.
0.38000, 12.
0.41000, 31.
0.44000, 42.
0.47000, 28.
0.50000, 46.
0.53000, 42.
0.56000, 38.
0.59000, 34.
0.62000, 48.
0.65000, 28.
0.68000, 43.
0.71000, 33.
0.74000, 47.
0.77000, 34.
0.80000, 29.
0.83000, 36.
0.86000, 32.
0.89000, 31.
0.92000, 39.
0.95000, 38.
0.98000, 42.
1.01000, 33.
1.04000, 50.
1.07000, 46.
1.10000, 47.
1.13000, 29.
1.16000, 36.
1.19000, 40.
1.22000, 71.
1.25000, 90.
1.28000, 70.
1.31000, 55.
1.34000, 28.
1.37000, 45.
1.40000, 86.
1.43000, 300.
1.46000, 532.
1.49000, 783.
1.52000, 612.
1.55000, 311.
1.58000, 138.
1.61000, 119.
1.64000, 310.
1.67000, 1282.
1.70000, 3592.
1.73000, 6016.
1.76000, 6062.
1.79000, 3736.
1.82000, 1576.
1.85000, 580.
1.88000, 230.
1.91000, 86.
1.94000, 69.
1.97000, 58.
2.00000, 68.
2.03000, 68.
2.06000, 55.
2.09000, 45.
2.12000, 27.
2.15000, 30.
2.18000, 33.
2.21000, 30.
2.24000, 45.
2.27000, 68.
2.30000, 80.
2.33000, 73.
2.36000, 76.
2.39000, 41.
2.42000, 43.
2.45000, 39.
2.48000, 34.
2.51000, 43.
2.54000, 42.
2.57000, 56.
2.60000, 98.
2.63000, 179.
2.66000, 393.
2.69000, 506.
2.72000, 502.
2.75000, 342.
2.78000, 293.
2.81000, 263.
2.84000, 281.
2.87000, 246.
2.90000, 204.
2.93000, 132.
2.96000, 98.
2.99000, 89.
3.02000, 65.
3.05000, 55.
3.08000, 39.
3.11000, 21.
3.14000, 40.
3.17000, 51.
3.20000, 56.
3.23000, 106.
3.26000, 222.
3.29000, 378.
3.32000, 458.
3.35000, 380.
3.38000, 231.
3.41000, 105.
3.44000, 56.
3.47000, 34.
3.50000, 56.
3.53000, 78.
3.56000, 101.
3.59000, 254.
3.62000, 475.
3.65000, 880.
3.68000, 1246.
3.71000, 1190.
3.74000, 882.
3.77000, 467.
3.80000, 182.
3.83000, 67.
3.86000, 44.
3.89000, 42.
3.92000, 57.
3.95000, 119.
3.98000, 163.
4.01000, 238.
4.04000, 224.
4.07000, 137.
4.10000, 76.
4.13000, 39.
4.16000, 28.
4.19000, 35.
4.22000, 38.
4.25000, 30.
4.28000, 33.
4.31000, 22.
4.34000, 45.
4.37000, 64.
4.40000, 154.
4.43000, 397.
4.46000, 702.
4.49000, 987.
4.52000, 1033.
4.55000, 836.
4.58000, 540.
4.61000, 308.
4.64000, 137.
4.67000, 124.
4.70000, 86.
4.73000, 90.
4.76000, 71.
4.79000, 65.
4.82000, 93.
4.85000, 107.
4.88000, 153.
4.91000, 213.
4.94000, 240.
4.97000, 172.
5.00000, 143.
5.03000, 105.
5.06000, 56.
5.09000, 52.
5.12000, 38.
5.15000, 60.
5.18000, 52.
5.21000, 49.
5.24000, 49.
5.27000, 61.
5.30000, 67.
5.33000, 95.
5.36000, 121.
5.39000, 127.
5.42000, 139.
5.45000, 127.
5.48000, 99.
5.51000, 75.
5.54000, 63.
5.57000, 56.
5.60000, 63.
5.63000, 64.
5.66000, 62.
5.69000, 53.
5.72000, 56.
5.75000, 56.
5.78000, 87.
5.81000, 128.
5.84000, 208.
5.87000, 288.
5.90000, 302.
5.93000, 300.
5.96000, 234.
5.99000, 147.
6.02000, 87.
6.05000, 90.
6.08000, 80.
6.11000, 89.
6.14000, 102.
6.17000, 155.
6.20000, 229.
6.23000, 528.
6.26000, 1378.
6.29000, 3420.
6.32000, 7168.
6.35000, 11977.
6.38000, 15898.
6.41000, 16344.
6.44000, 13403.
6.47000, 8780.
6.50000, 4262.
6.53000, 1918.
6.56000, 688.
6.59000, 255.
6.62000, 143.
6.65000, 93.
6.68000, 112.
6.71000, 122.
6.74000, 146.
6.77000, 123.
6.80000, 115.
6.83000, 155.
6.86000, 181.
6.89000, 252.
6.92000, 444.
6.95000, 849.
6.98000, 1439.
7.01000, 2157.
7.04000, 2580.
7.07000, 2665.
7.10000, 2137.
7.13000, 1242.
7.16000, 745.
7.19000, 342.
7.22000, 180.
7.25000, 92.
7.28000, 78.
7.31000, 63.
7.34000, 67.
7.37000, 93.
7.40000, 90.
7.43000, 87.
7.46000, 108.
7.49000, 105.
7.52000, 107.
7.55000, 77.
7.58000, 68.
7.61000, 74.
7.64000, 74.
7.67000, 81.
7.70000, 96.
7.73000, 68.
7.76000, 78.
7.79000, 80.
7.82000, 84.
7.85000, 93.
7.88000, 114.
7.91000, 124.
7.94000, 112.
7.97000, 117.
8.00000, 160.
8.03000, 154.
8.06000, 147.
8.09000, 154.
8.12000, 158.
8.15000, 148.
8.18000, 110.
8.21000, 124.
8.24000, 124.
8.27000, 96.
8.30000, 102.
8.33000, 96.
8.36000, 99.
8.39000, 94.
8.42000, 102.
8.45000, 114.
8.48000, 112.
8.51000, 134.
8.54000, 162.
8.57000, 238.
8.60000, 282.
8.63000, 283.
8.66000, 253.
8.69000, 217.
8.72000, 206.
8.75000, 157.
8.78000, 131.
8.81000, 116.
8.84000, 115.
8.87000, 121.
8.90000, 117.
8.93000, 106.
8.96000, 119.
8.99000, 106.
9.02000, 92.
9.05000, 108.
9.08000, 116.
9.11000, 114.
9.14000, 112.
9.17000, 145.
9.20000, 132.
9.23000, 138.
9.26000, 132.
9.29000, 116.
9.32000, 109.
9.35000, 128.
9.38000, 110.
9.41000, 102.
9.44000, 133.
9.47000, 135.
9.50000, 127.
9.53000, 148.
9.56000, 153.
9.59000, 147.
9.62000, 161.
9.65000, 128.
9.68000, 144.
9.71000, 121.
9.74000, 125.
9.77000, 119.
9.80000, 125.
9.83000, 125.
9.86000, 122.
9.89000, 127.
9.92000, 144.
9.95000, 116.
9.98000, 111.
10.01000, 101.
10.04000, 120.
10.07000, 114.
10.10000, 132.
10.13000, 122.
10.16000, 133.
10.19000, 132.
10.22000, 117.
10.25000, 138.
10.28000, 121.
10.31000, 143.
10.34000, 145.
10.37000, 146.
10.40000, 125.
10.43000, 214.
10.46000, 202.
10.49000, 217.
10.52000, 256.
10.55000, 254.
10.58000, 224.
10.61000, 189.
10.64000, 204.
10.67000, 163.
10.70000, 155.
10.73000, 145.
10.76000, 137.
10.79000, 128.
10.82000, 119.
10.85000, 127.
10.88000, 144.
10.91000, 143.
10.94000, 123.
10.97000, 132.
11.00000, 133.
11.03000, 137.
11.06000, 119.
11.09000, 123.
11.12000, 128.
11.15000, 123.
11.18000, 136.
11.21000, 133.
11.24000, 141.
11.27000, 150.
11.30000, 160.
11.33000, 145.
11.36000, 166.
11.39000, 136.
11.42000, 130.
11.45000, 156.
11.48000, 126.
11.51000, 128.
11.54000, 154.
11.57000, 131.
11.60000, 134.
11.63000, 137.
11.66000, 141.
11.69000, 125.
11.72000, 141.
11.75000, 158.
11.78000, 142.
11.81000, 135.
11.84000, 126.
11.87000, 124.
11.90000, 138.
11.93000, 134.
11.96000, 132.
11.99000, 128.
12.02000, 141.
12.05000, 164.
12.08000, 145.
12.11000, 127.
12.14000, 146.
12.17000, 161.
12.20000, 155.
12.23000, 144.
12.26000, 146.
12.29000, 150.
12.32000, 160.
12.35000, 156.
12.38000, 150.
12.41000, 152.
12.44000, 139.
12.47000, 176.
12.50000, 206.
12.53000, 207.
12.56000, 245.
12.59000, 236.
12.62000, 287.
12.65000, 230.
12.68000, 246.
12.71000, 202.
12.74000, 214.
12.77000, 164.
12.80000, 195.
12.83000, 175.
12.86000, 204.
12.89000, 187.
12.92000, 165.
12.95000, 163.
12.98000, 157.
13.01000, 171.
13.04000, 159.
13.07000, 163.
13.10000, 154.
13.13000, 144.
13.16000, 158.
13.19000, 134.
13.22000, 163.
13.25000, 169.
13.28000, 172.
13.31000, 192.
13.34000, 198.
13.37000, 211.
13.40000, 173.
13.43000, 210.
13.46000, 189.
13.49000, 174.
13.52000, 179.
13.55000, 162.
13.58000, 165.
13.61000, 158.
13.64000, 162.
13.67000, 141.
13.70000, 159.
13.73000, 141.
13.76000, 160.
13.79000, 144.
13.82000, 142.
13.85000, 166.
13.88000, 139.
13.91000, 157.
13.94000, 152.
13.97000, 146.
14.00000, 157.
14.03000, 170.
14.06000, 209.
14.09000, 211.
14.12000, 186.
14.15000, 183.
14.18000, 211.
14.21000, 177.
14.24000, 187.
14.27000, 197.
14.30000, 141.
14.33000, 145.
14.36000, 139.
14.39000, 151.
14.42000, 150.
14.45000, 145.
14.48000, 152.
14.51000, 127.
14.54000, 128.
14.57000, 134.
14.60000, 149.
14.63000, 158.
14.66000, 155.
14.69000, 144.
14.72000, 162.
14.75000, 169.
14.78000, 164.
14.81000, 174.
14.84000, 155.
14.87000, 193.
14.90000, 161.
14.93000, 192.
14.96000, 184.
14.99000, 177.
15.02000, 164.
15.05000, 169.
15.08000, 161.
15.11000, 178.
15.14000, 163.
15.17000, 156.
15.20000, 168.
15.23000, 134.
15.26000, 146.
15.29000, 161.
15.32000, 145.
15.35000, 129.
15.38000, 135.
15.41000, 125.
15.44000, 162.
15.47000, 153.
15.50000, 167.
15.53000, 192.
15.56000, 193.
15.59000, 240.
15.62000, 263.
15.65000, 340.
15.68000, 354.
15.71000, 412.
15.74000, 364.
15.77000, 349.
15.80000, 337.
15.83000, 283.
15.86000, 271.
15.89000, 230.
15.92000, 203.
15.95000, 162.
15.98000, 146.
16.01000, 145.
16.04000, 147.
16.07000, 144.
16.10000, 150.
16.13000, 144.
16.16000, 137.
16.19000, 157.
16.22000, 140.
16.25000, 137.
16.28000, 162.
16.31000, 139.
16.34000, 133.
16.37000, 147.
16.40000, 156.
16.43000, 150.
16.46000, 164.
16.49000, 179.
16.52000, 173.
16.55000, 162.
16.58000, 186.
16.61000, 147.
16.64000, 167.
16.67000, 153.
16.70000, 167.
16.73000, 132.
16.76000, 162.
16.79000, 136.
16.82000, 181.
16.85000, 158.
16.88000, 133.
16.91000, 131.
16.94000, 159.
16.97000, 152.
17.00000, 117.
17.03000, 158.
17.06000, 135.
17.09000, 156.
17.12000, 164.
17.15000, 127.
17.18000, 149.
17.21000, 153.
17.24000, 145.
17.27000, 179.
17.30000, 139.
17.33000, 155.
17.36000, 159.
17.39000, 145.
17.42000, 169.
17.45000, 141.
17.48000, 176.
17.51000, 171.
17.54000, 167.
17.57000, 175.
17.60000, 226.
17.63000, 202.
17.66000, 220.
17.69000, 236.
17.72000, 187.
17.75000, 175.
17.78000, 193.
17.81000, 185.
17.84000, 197.
17.87000, 198.
17.90000, 175.
17.93000, 217.
17.96000, 203.
17.99000, 192.
18.02000, 205.
18.05000, 218.
18.08000, 233.
18.11000, 228.
18.14000, 272.
18.17000, 232.
18.20000, 268.
18.23000, 248.
18.26000, 291.
18.29000, 329.
18.32000, 341.
18.35000, 397.
18.38000, 411.
18.41000, 413.
18.44000, 438.
18.47000, 520.
18.50000, 547.
18.53000, 614.
18.56000, 658.
18.59000, 694.
18.62000, 715.
18.65000, 734.
18.68000, 814.
18.71000, 795.
18.74000, 797.
18.77000, 905.
18.80000, 903.
18.83000, 872.
18.86000, 848.
18.89000, 831.
18.92000, 817.
18.95000, 738.
18.98000, 729.
19.01000, 723.
19.04000, 600.
19.07000, 594.
19.10000, 553.
19.13000, 477.
19.16000, 426.
19.19000, 413.
19.22000, 360.
19.25000, 376.
19.28000, 294.
19.31000, 317.
19.34000, 307.
19.37000, 271.
19.40000, 261.
19.43000, 239.
19.46000, 236.
19.49000, 210.
19.52000, 204.
19.55000, 211.
19.58000, 179.
19.61000, 173.
19.64000, 175.
19.67000, 188.
19.70000, 163.
19.73000, 147.
19.76000, 141.
19.79000, 173.
19.82000, 146.
19.85000, 185.
19.88000, 205.
19.91000, 257.
19.94000, 244.
19.97000, 333.
20.00000, 353.
20.03000, 405.
20.06000, 437.
20.09000, 543.
20.12000, 516.
20.15000, 502.
20.18000, 488.
20.21000, 483.
20.24000, 462.
20.27000, 402.
20.30000, 341.
20.33000, 271.
20.36000, 189.
20.39000, 185.
20.42000, 147.
20.45000, 142.
20.48000, 150.
20.51000, 142.
20.54000, 153.
20.57000, 157.
20.60000, 154.
20.63000, 186.
20.66000, 175.
20.69000, 178.
20.72000, 201.
20.75000, 201.
20.78000, 227.
20.81000, 211.
20.84000, 198.
20.87000, 227.
20.90000, 232.
20.93000, 231.
20.96000, 222.
20.99000, 244.
21.02000, 214.
21.05000, 251.
21.08000, 236.
21.11000, 231.
21.14000, 191.
21.17000, 186.
21.20000, 207.
21.23000, 234.
21.26000, 209.
21.29000, 188.
21.32000, 181.
21.35000, 184.
21.38000, 147.
21.41000, 176.
21.44000, 146.
21.47000, 154.
21.50000, 134.
21.53000, 130.
21.56000, 153.
21.59000, 131.
21.62000, 129.
21.65000, 129.
21.68000, 126.
21.71000, 153.
21.74000, 103.
21.77000, 97.
21.80000, 89.
21.83000, 97.
21.86000, 102.
21.89000, 101.
21.92000, 94.
21.95000, 103.
21.98000, 95.
22.01000, 70.
22.04000, 100.
22.07000, 88.
22.10000, 102.
22.13000, 78.
22.16000, 96.
22.19000, 96.
22.22000, 81.
22.25000, 114.
22.28000, 99.
22.31000, 84.
22.34000, 80.
22.37000, 73.
22.40000, 74.
22.43000, 70.
22.46000, 92.
22.49000, 108.
22.52000, 92.
22.55000, 112.
22.58000, 125.
22.61000, 106.
22.64000, 113.
22.67000, 132.
22.70000, 126.
22.73000, 122.
22.76000, 104.
22.79000, 103.
22.82000, 104.
22.85000, 89.
22.88000, 83.
22.91000, 81.
22.94000, 64.
22.97000, 76.
23.00000, 73.
23.03000, 76.
23.06000, 74.
23.09000, 81.
23.12000, 78.
23.15000, 86.
23.18000, 74.
23.21000, 65.
23.24000, 77.
23.27000, 69.
23.30000, 67.
23.33000, 79.
23.36000, 74.
23.39000, 66.
23.42000, 62.
23.45000, 71.
23.48000, 61.
23.51000, 56.
23.54000, 70.
23.57000, 54.
23.60000, 55.
23.63000, 70.
23.66000, 85.
23.69000, 71.
23.72000, 63.
23.75000, 55.
23.78000, 63.
23.81000, 76.
23.84000, 72.
23.87000, 71.
23.90000, 70.
23.93000, 63.
23.96000, 54.
23.99000, 75.
24.02000, 71.
24.05000, 53.
24.08000, 63.
24.11000, 64.
24.14000, 57.
24.17000, 54.
24.20000, 49.
24.23000, 65.
24.26000, 59.
24.29000, 70.
24.32000, 54.
24.35000, 69.
24.38000, 56.
24.41000, 50.
24.44000, 50.
24.47000, 72.
24.50000, 59.
24.53000, 67.
24.56000, 71.
24.59000, 67.
24.62000, 60.
24.65000, 63.
24.68000, 57.
24.71000, 81.
24.74000, 54.
24.77000, 66.
24.80000, 65.
24.83000, 68.
24.86000, 63.
24.89000, 59.
24.92000, 88.
24.95000, 65.
24.98000, 61.
25.01000, 62.
25.04000, 66.
25.07000, 58.
25.10000, 77.
25.13000, 80.
25.16000, 70.
25.19000, 63.
25.22000, 76.
25.25000, 61.
25.28000, 56.
25.31000, 70.
25.34000, 78.
25.37000, 65.
25.40000, 60.
25.43000, 66.
25.46000, 51.
25.49000, 56.
25.52000, 59.
25.55000, 61.
25.58000, 48.
25.61000, 57.
25.64000, 51.
25.67000, 60.
25.70000, 59.
25.73000, 61.
25.76000, 56.
25.79000, 55.
25.82000, 49.
25.85000, 60.
25.88000, 60.
25.91000, 57.
25.94000, 49.
25.97000, 64.
26.00000, 71.
26.03000, 48.
26.06000, 54.
26.09000, 47.
26.12000, 48.
26.15000, 59.
26.18000, 56.
26.21000, 50.
26.24000, 65.
26.27000, 60.
26.30000, 55.
26.33000, 57.
26.36000, 38.
26.39000, 40.
26.42000, 62.
26.45000, 46.
26.48000, 64.
26.51000, 55.
26.54000, 54.
26.57000, 59.
26.60000, 40.
26.63000, 54.
26.66000, 56.
26.69000, 49.
26.72000, 56.
26.75000, 49.
26.78000, 45.
26.81000, 48.
26.84000, 50.
26.87000, 62.
26.90000, 34.
26.93000, 56.
26.96000, 67.
26.99000, 59.
27.02000, 51.
27.05000, 38.
27.08000, 47.
27.11000, 58.
27.14000, 50.
27.17000, 45.
27.20000, 54.
27.23000, 54.
27.26000, 48.
27.29000, 44.
27.32000, 50.
27.35000, 38.
27.38000, 37.
27.41000, 39.
27.44000, 50.
27.47000, 39.
27.50000, 55.
27.53000, 49.
27.56000, 51.
27.59000, 53.
27.62000, 43.
27.65000, 46.
27.68000, 50.
27.71000, 46.
27.74000, 35.
27.77000, 32.
27.80000, 41.
27.83000, 48.
27.86000, 48.
27.89000, 40.
27.92000, 42.
27.95000, 37.
27.98000, 47.
28.01000, 38.
28.04000, 48.
28.07000, 44.
28.10000, 54.
28.13000, 54.
28.16000, 49.
28.19000, 37.
28.22000, 44.
28.25000, 54.
28.28000, 48.
28.31000, 32.
28.34000, 52.
28.37000, 36.
28.40000, 36.
28.43000, 48.
28.46000, 52.
28.49000, 43.
28.52000, 40.
28.55000, 41.
28.58000, 30.
28.61000, 26.
28.64000, 35.
28.67000, 42.
28.70000, 44.
28.73000, 35.
28.76000, 37.
28.79000, 39.
28.82000, 43.
28.85000, 31.
28.88000, 51.
28.91000, 34.
28.94000, 38.
28.97000, 33.
29.00000, 40.
29.03000, 43.
29.06000, 36.
29.09000, 38.
29.12000, 25.
29.15000, 40.
29.18000, 31.
29.21000, 45.
29.24000, 26.
29.27000, 36.
29.30000, 39.
29.33000, 34.
29.36000, 38.
29.39000, 27.
29.42000, 45.
29.45000, 29.
29.48000, 39.
29.51000, 20.
29.54000, 44.
29.57000, 37.
29.60000, 30.
29.63000, 36.
29.66000, 34.
29.69000, 37.
29.72000, 39.
29.75000, 40.
29.78000, 34.
29.81000, 27.
29.84000, 30.
29.87000, 41.
29.90000, 34.
29.93000, 41.
29.96000, 28.
29.99000, 31.
30.02000, 37.
30.05000, 33.
30.08000, 37.
30.11000, 35.
30.14000, 34.
30.17000, 38.
30.20000, 42.
30.23000, 37.
30.26000, 34.
30.29000, 29.
30.32000, 21.
30.35000, 39.
30.38000, 33.
30.41000, 32.
30.44000, 37.
30.47000, 32.
30.50000, 30.
30.53000, 33.
30.56000, 34.
30.59000, 44.
30.62000, 30.
30.65000, 26.
30.68000, 42.
30.71000, 23.
30.74000, 28.
30.77000, 34.
30.80000, 26.
30.83000, 25.
30.86000, 32.
30.89000, 31.
30.92000, 26.
30.95000, 36.
30.98000, 38.
31.01000, 40.
31.04000, 25.
31.07000, 39.
31.10000, 26.
31.13000, 21.
31.16000, 26.
31.19000, 38.
31.22000, 30.
31.25000, 29.
31.28000, 44.
31.31000, 32.
31.34000, 26.
31.37000, 24.
31.40000, 29.
31.43000, 30.
31.46000, 38.
31.49000, 31.
31.52000, 27.
31.55000, 26.
31.58000, 27.
31.61000, 27.
31.64000, 22.
31.67000, 27.
31.70000, 32.
31.73000, 25.
31.76000, 32.
31.79000, 33.
31.82000, 29.
31.85000, 28.
31.88000, 27.
31.91000, 29.
31.94000, 29.
31.97000, 42.
32.00000, 32.
32.03000, 25.
32.06000, 27.
32.09000, 31.
32.12000, 21.
32.15000, 31.
32.18000, 21.
32.21000, 37.
32.24000, 24.
32.27000, 23.
32.30000, 34.
32.33000, 19.
32.36000, 26.
32.39000, 17.
32.42000, 32.
32.45000, 25.
32.48000, 27.
32.51000, 22.
32.54000, 22.
32.57000, 29.
32.60000, 19.
32.63000, 19.
32.66000, 30.
32.69000, 23.
32.72000, 26.
32.75000, 28.
32.78000, 23.
32.81000, 30.
32.84000, 25.
32.87000, 19.
32.90000, 16.
32.93000, 26.
32.96000, 18.
32.99000, 25.
33.02000, 23.
33.05000, 20.
33.08000, 22.
33.11000, 26.
33.14000, 21.
33.17000, 28.
33.20000, 21.
33.23000, 18.
33.26000, 25.
33.29000, 18.
33.32000, 23.
33.35000, 25.
33.38000, 29.
33.41000, 18.
33.44000, 22.
33.47000, 19.
33.50000, 17.
33.53000, 18.
33.56000, 19.
33.59000, 14.
33.62000, 16.
33.65000, 18.
33.68000, 18.
33.71000, 16.
33.74000, 22.
33.77000, 18.
33.80000, 21.
33.83000, 25.
33.86000, 22.
33.89000, 17.
33.92000, 18.
33.95000, 21.
33.98000, 23.
34.01000, 14.
34.04000, 26.
34.07000, 25.
34.10000, 16.
34.13000, 26.
34.16000, 30.
34.19000, 24.
34.22000, 21.
34.25000, 29.
34.28000, 26.
34.31000, 22.
34.34000, 16.
34.37000, 19.
34.40000, 22.
34.43000, 9.
34.46000, 8.
34.49000, 24.
34.52000, 10.
34.55000, 13.
34.58000, 22.
34.61000, 14.
34.64000, 17.
34.67000, 20.
34.70000, 14.
34.73000, 17.
34.76000, 16.
34.79000, 9.
34.82000, 15.
34.85000, 16.
34.88000, 11.
34.91000, 11.
34.94000, 18.
34.97000, 6.
35.00000, 19.
35.03000, 12.
35.06000, 20.
35.09000, 16.
35.12000, 20.
35.15000, 18.
35.18000, 13.
35.21000, 16.
35.24000, 18.
35.27000, 22.
35.30000, 19.
35.33000, 15.
35.36000, 15.
35.39000, 7.
35.42000, 15.
35.45000, 8.
35.48000, 19.
35.51000, 14.
35.54000, 8.
35.57000, 21.
35.60000, 21.
35.63000, 11.
35.66000, 11.
35.69000, 19.
35.72000, 17.
35.75000, 20.
35.78000, 12.
35.81000, 15.
35.84000, 15.
35.87000, 22.
35.90000, 15.
35.93000, 16.
35.96000, 9.
35.99000, 15.
36.02000, 17.
36.05000, 9.
36.08000, 19.
36.11000, 17.
36.14000, 11.
36.17000, 15.
36.20000, 16.
36.23000, 11.
36.26000, 17.
36.29000, 13.
36.32000, 19.
36.35000, 8.
36.38000, 10.
36.41000, 18.
36.44000, 15.
36.47000, 11.
36.50000, 13.
36.53000, 13.
36.56000, 9.
36.59000, 18.
36.62000, 17.
36.65000, 13.
36.68000, 10.
36.71000, 10.
36.74000, 14.
36.77000, 9.
36.80000, 22.
36.83000, 9.
36.86000, 15.
36.89000, 15.
36.92000, 15.
36.95000, 15.
36.98000, 9.
37.01000, 4.
37.04000, 11.
37.07000, 7.
37.10000, 13.
37.13000, 10.
37.16000, 19.
37.19000, 12.
37.22000, 18.
37.25000, 9.
37.28000, 11.
37.31000, 14.
37.34000, 7.
37.37000, 11.
37.40000, 11.
37.43000, 17.
37.46000, 9.
37.49000, 12.
37.52000, 16.
37.55000, 6.
37.58000, 11.
37.61000, 7.
37.64000, 11.
37.67000, 12.
37.70000, 9.
37.73000, 11.
37.76000, 10.
37.79000, 7.
37.82000, 14.
37.85000, 11.
37.88000, 10.
37.91000, 7.
37.94000, 10.
37.97000, 11.
38.00000, 5.
38.03000, 9.
38.06000, 7.
38.09000, 3.
38.12000, 6.
38.15000, 5.
38.18000, 10.
38.21000, 9.
38.24000, 3.
38.27000, 6.
38.30000, 7.
38.33000, 7.
38.36000, 9.
38.39000, 7.
38.42000, 8.
38.45000, 7.
38.48000, 12.
38.51000, 7.
38.54000, 3.
38.57000, 10.
38.60000, 12.
38.63000, 16.
38.66000, 2.
38.69000, 14.
38.72000, 6.
38.75000, 10.
38.78000, 10.
38.81000, 6.
38.84000, 8.
38.87000, 6.
38.90000, 5.
38.93000, 5.
38.96000, 8.
38.99000, 3.
39.02000, 7.
39.05000, 12.
39.08000, 9.
39.11000, 2.
39.14000, 8.
39.17000, 4.
39.20000, 6.
39.23000, 2.
39.26000, 2.
39.29000, 5.
39.32000, 3.
39.35000, 5.
39.38000, 8.
39.41000, 10.
39.44000, 6.
39.47000, 8.
39.50000, 8.
39.53000, 7.
39.56000, 4.
39.59000, 5.
39.62000, 7.
39.65000, 6.
39.68000, 4.
39.71000, 5.
39.74000, 4.
39.77000, 8.
39.80000, 5.
39.83000, 4.
39.86000, 8.
39.89000, 5.
39.92000, 5.
39.95000, 5.
39.98000, 9.
40.01000, 6.
40.04000, 3.
40.07000, 1.
40.10000, 8.
40.13000, 2.
40.16000, 3.
40.19000, 7.
40.22000, 9.
40.25000, 6.
40.28000, 3.
40.31000, 3.
40.34000, 6.
40.37000, 5.
40.40000, 7.
40.43000, 5.
40.46000, 1.
40.49000, 3.
40.52000, 9.
40.55000, 0.
#ENDOFDATA   :