File: sample_data/data/Spectrum value from standard/Nist 2586/Spectrum 28.txt
#FORMAT      : EMSA/MAS Spectral Data File
#VERSION     : 1.0
#TITLE       : Spectrum 28
#DATE        : 21-AUG-2025
#TIME        : 15:32
#OWNER       : XGT7200
#NPOINTS     : 4096.
#NCOLUMNS    : 1.
#XUNITS      : keV
#YUNITS      : counts
#DATATYPE    : XY
#XPERCHAN    : 0.0100000
#OFFSET      : -0.400000
#SIGNALTYPE  : EDS
#CHOFFSET    : 40.0000
#LIVETIME    : 30
#REALTIME    : 39.7353
#BEAMKV      : 50.0000
#PROBECUR    : 691000.
#MAGCAM      : 100.000
#XTILTSTGE   : 0.0
#AZIMANGLE   : 0.0
#ELEVANGLE   : 45.0
#XPOSITION mm: 0.0000
#YPOSITION mm: 0.0000
#ZPOSITION mm: 0.0000
##OXINSTPT   : 4
##OXINSTSTROB: 72.09
#SPECTRUM    : Spectral Data Starts Here
-0.40000, 0.
-0.37000, 0.
-0.34000, 0.
-0.31000, 0.
-0.28000, 0.
-0.25000, 0.
-0.22000, 0.
-0.19000, 0.
-0.16000, 0.
-0.13000, 0.
-0.10000, 0.
-0.07000, 0.
-0.04000, 0.
-0.01000, 0.
0.02000, 0.
0.05000, 0.
0.08000, 0.
0.11000, 0.
0.14000, 0.
0.17000, 0.
0.20000, 0.
0.23000, 0.
0.26000, 0.
0.29000, 0.
0.32000, 0.
0.35000, 4.
0.38000, 9.
0.41000, 33.
0.44000, 37.
0.47000, 35.
0.50000, 45.
0.53000, 41.
0.56000, 50.
0.59000, 45.
0.62000, 46.
0.65000, 37.
0.68000, 31.
0.71000, 47.
0.74000, 27.
0.77000, 40.
0.80000, 32.
0.83000, 35.
0.86000, 31.
0.89000, 41.
0.92000, 35.
0.95000, 40.
0.98000, 43.
1.01000, 50.
1.04000, 39.
1.07000, 52.
1.10000, 37.
1.13000, 37.
1.16000, 38.
1.19000, 47.
1.22000, 81.
1.25000, 106.
1.28000, 71.
1.31000, 59.
1.34000, 40.
1.37000, 48.
1.40000, 78.
1.43000, 251.
1.46000, 538.
1.49000, 684.
1.52000, 621.
1.55000, 304.
1.58000, 148.
1.61000, 110.
1.64000, 280.
1.67000, 1219.
1.70000, 3310.
1.73000, 5517.
1.76000, 5697.
1.79000, 3555.
1.82000, 1546.
1.85000, 516.
1.88000, 232.
1.91000, 107.
1.94000, 73.
1.97000, 54.
2.00000, 67.
2.03000, 73.
2.06000, 41.
2.09000, 38.
2.12000, 34.
2.15000, 35.
2.18000, 31.
2.21000, 39.
2.24000, 36.
2.27000, 46.
2.30000, 78.
2.33000, 82.
2.36000, 67.
2.39000, 44.
2.42000, 50.
2.45000, 32.
2.48000, 27.
2.51000, 27.
2.54000, 51.
2.57000, 52.
2.60000, 96.
2.63000, 213.
2.66000, 375.
2.69000, 498.
2.72000, 523.
2.75000, 356.
2.78000, 306.
2.81000, 348.
2.84000, 366.
2.87000, 330.
2.90000, 209.
2.93000, 162.
2.96000, 93.
2.99000, 66.
3.02000, 68.
3.05000, 39.
3.08000, 31.
3.11000, 24.
3.14000, 31.
3.17000, 40.
3.20000, 54.
3.23000, 104.
3.26000, 223.
3.29000, 347.
3.32000, 386.
3.35000, 352.
3.38000, 192.
3.41000, 95.
3.44000, 40.
3.47000, 47.
3.50000, 52.
3.53000, 72.
3.56000, 123.
3.59000, 206.
3.62000, 544.
3.65000, 988.
3.68000, 1313.
3.71000, 1259.
3.74000, 894.
3.77000, 445.
3.80000, 165.
3.83000, 71.
3.86000, 44.
3.89000, 42.
3.92000, 63.
3.95000, 111.
3.98000, 162.
4.01000, 235.
4.04000, 204.
4.07000, 162.
4.10000, 77.
4.13000, 49.
4.16000, 37.
4.19000, 26.
4.22000, 32.
4.25000, 38.
4.28000, 27.
4.31000, 43.
4.34000, 47.
4.37000, 74.
4.40000, 147.
4.43000, 310.
4.46000, 527.
4.49000, 755.
4.52000, 824.
4.55000, 623.
4.58000, 431.
4.61000, 243.
4.64000, 142.
4.67000, 108.
4.70000, 88.
4.73000, 82.
4.76000, 81.
4.79000, 60.
4.82000, 86.
4.85000, 112.
4.88000, 127.
4.91000, 187.
4.94000, 189.
4.97000, 157.
5.00000, 124.
5.03000, 80.
5.06000, 51.
5.09000, 46.
5.12000, 56.
5.15000, 44.
5.18000, 64.
5.21000, 64.
5.24000, 56.
5.27000, 67.
5.30000, 60.
5.33000, 87.
5.36000, 91.
5.39000, 132.
5.42000, 112.
5.45000, 121.
5.48000, 106.
5.51000, 79.
5.54000, 46.
5.57000, 62.
5.60000, 58.
5.63000, 67.
5.66000, 49.
5.69000, 61.
5.72000, 48.
5.75000, 73.
5.78000, 79.
5.81000, 136.
5.84000, 207.
5.87000, 297.
5.90000, 283.
5.93000, 301.
5.96000, 213.
5.99000, 143.
6.02000, 114.
6.05000, 80.
6.08000, 90.
6.11000, 94.
6.14000, 101.
6.17000, 149.
6.20000, 207.
6.23000, 523.
6.26000, 1410.
6.29000, 3412.
6.32000, 7321.
6.35000, 12146.
6.38000, 16021.
6.41000, 16789.
6.44000, 13641.
6.47000, 8863.
6.50000, 4483.
6.53000, 1862.
6.56000, 638.
6.59000, 253.
6.62000, 141.
6.65000, 114.
6.68000, 120.
6.71000, 79.
6.74000, 97.
6.77000, 114.
6.80000, 117.
6.83000, 126.
6.86000, 189.
6.89000, 284.
6.92000, 477.
6.95000, 880.
6.98000, 1579.
7.01000, 2147.
7.04000, 2779.
7.07000, 2663.
7.10000, 2154.
7.13000, 1385.
7.16000, 747.
7.19000, 373.
7.22000, 197.
7.25000, 96.
7.28000, 78.
7.31000, 71.
7.34000, 75.
7.37000, 66.
7.40000, 83.
7.43000, 81.
7.46000, 103.
7.49000, 107.
7.52000, 92.
7.55000, 88.
7.58000, 63.
7.61000, 72.
7.64000, 83.
7.67000, 86.
7.70000, 98.
7.73000, 82.
7.76000, 80.
7.79000, 81.
7.82000, 87.
7.85000, 110.
7.88000, 103.
7.91000, 123.
7.94000, 120.
7.97000, 108.
8.00000, 142.
8.03000, 141.
8.06000, 153.
8.09000, 169.
8.12000, 164.
8.15000, 148.
8.18000, 144.
8.21000, 130.
8.24000, 103.
8.27000, 107.
8.30000, 108.
8.33000, 105.
8.36000, 103.
8.39000, 101.
8.42000, 123.
8.45000, 116.
8.48000, 133.
8.51000, 167.
8.54000, 183.
8.57000, 244.
8.60000, 279.
8.63000, 331.
8.66000, 284.
8.69000, 223.
8.72000, 204.
8.75000, 135.
8.78000, 129.
8.81000, 110.
8.84000, 119.
8.87000, 125.
8.90000, 108.
8.93000, 131.
8.96000, 108.
8.99000, 110.
9.02000, 118.
9.05000, 149.
9.08000, 110.
9.11000, 118.
9.14000, 129.
9.17000, 119.
9.20000, 120.
9.23000, 134.
9.26000, 123.
9.29000, 111.
9.32000, 134.
9.35000, 120.
9.38000, 113.
9.41000, 130.
9.44000, 112.
9.47000, 136.
9.50000, 165.
9.53000, 157.
9.56000, 150.
9.59000, 162.
9.62000, 137.
9.65000, 147.
9.68000, 118.
9.71000, 151.
9.74000, 126.
9.77000, 113.
9.80000, 110.
9.83000, 132.
9.86000, 119.
9.89000, 106.
9.92000, 121.
9.95000, 135.
9.98000, 130.
10.01000, 123.
10.04000, 131.
10.07000, 112.
10.10000, 123.
10.13000, 122.
10.16000, 133.
10.19000, 133.
10.22000, 127.
10.25000, 113.
10.28000, 147.
10.31000, 117.
10.34000, 126.
10.37000, 146.
10.40000, 138.
10.43000, 188.
10.46000, 222.
10.49000, 238.
10.52000, 256.
10.55000, 253.
10.58000, 247.
10.61000, 210.
10.64000, 198.
10.67000, 145.
10.70000, 153.
10.73000, 153.
10.76000, 137.
10.79000, 152.
10.82000, 127.
10.85000, 133.
10.88000, 152.
10.91000, 147.
10.94000, 144.
10.97000, 125.
11.00000, 150.
11.03000, 125.
11.06000, 123.
11.09000, 126.
11.12000, 118.
11.15000, 127.
11.18000, 119.
11.21000, 129.
11.24000, 131.
11.27000, 118.
11.30000, 127.
11.33000, 123.
11.36000, 134.
11.39000, 121.
11.42000, 146.
11.45000, 144.
11.48000, 139.
11.51000, 113.
11.54000, 128.
11.57000, 140.
11.60000, 132.
11.63000, 149.
11.66000, 133.
11.69000, 146.
11.72000, 133.
11.75000, 133.
11.78000, 115.
11.81000, 135.
11.84000, 157.
11.87000, 143.
11.90000, 155.
11.93000, 138.
11.96000, 156.
11.99000, 129.
12.02000, 147.
12.05000, 144.
12.08000, 165.
12.11000, 146.
12.14000, 147.
12.17000, 142.
12.20000, 127.
12.23000, 158.
12.26000, 149.
12.29000, 147.
12.32000, 164.
12.35000, 159.
12.38000, 142.
12.41000, 160.
12.44000, 176.
12.47000, 186.
12.50000, 202.
12.53000, 210.
12.56000, 257.
12.59000, 249.
12.62000, 289.
12.65000, 250.
12.68000, 252.
12.71000, 231.
12.74000, 228.
12.77000, 233.
12.80000, 193.
12.83000, 213.
12.86000, 165.
12.89000, 166.
12.92000, 183.
12.95000, 174.
12.98000, 149.
13.01000, 176.
13.04000, 145.
13.07000, 137.
13.10000, 152.
13.13000, 140.
13.16000, 135.
13.19000, 145.
13.22000, 171.
13.25000, 181.
13.28000, 171.
13.31000, 186.
13.34000, 202.
13.37000, 203.
13.40000, 199.
13.43000, 176.
13.46000, 171.
13.49000, 213.
13.52000, 157.
13.55000, 160.
13.58000, 144.
13.61000, 161.
13.64000, 151.
13.67000, 123.
13.70000, 136.
13.73000, 142.
13.76000, 158.
13.79000, 154.
13.82000, 154.
13.85000, 157.
13.88000, 138.
13.91000, 179.
13.94000, 157.
13.97000, 163.
14.00000, 196.
14.03000, 172.
14.06000, 203.
14.09000, 214.
14.12000, 227.
14.15000, 225.
14.18000, 193.
14.21000, 173.
14.24000, 169.
14.27000, 186.
14.30000, 146.
14.33000, 138.
14.36000, 142.
14.39000, 159.
14.42000, 122.
14.45000, 153.
14.48000, 138.
14.51000, 146.
14.54000, 130.
14.57000, 148.
14.60000, 153.
14.63000, 162.
14.66000, 165.
14.69000, 163.
14.72000, 156.
14.75000, 147.
14.78000, 199.
14.81000, 147.
14.84000, 186.
14.87000, 160.
14.90000, 172.
14.93000, 190.
14.96000, 158.
14.99000, 171.
15.02000, 166.
15.05000, 199.
15.08000, 136.
15.11000, 183.
15.14000, 148.
15.17000, 144.
15.20000, 144.
15.23000, 149.
15.26000, 145.
15.29000, 148.
15.32000, 145.
15.35000, 152.
15.38000, 138.
15.41000, 159.
15.44000, 147.
15.47000, 159.
15.50000, 158.
15.53000, 193.
15.56000, 218.
15.59000, 265.
15.62000, 298.
15.65000, 376.
15.68000, 390.
15.71000, 410.
15.74000, 380.
15.77000, 399.
15.80000, 398.
15.83000, 290.
15.86000, 248.
15.89000, 208.
15.92000, 152.
15.95000, 172.
15.98000, 154.
16.01000, 165.
16.04000, 144.
16.07000, 129.
16.10000, 150.
16.13000, 138.
16.16000, 165.
16.19000, 154.
16.22000, 137.
16.25000, 131.
16.28000, 138.
16.31000, 155.
16.34000, 135.
16.37000, 133.
16.40000, 144.
16.43000, 148.
16.46000, 158.
16.49000, 131.
16.52000, 152.
16.55000, 164.
16.58000, 160.
16.61000, 126.
16.64000, 133.
16.67000, 155.
16.70000, 149.
16.73000, 132.
16.76000, 145.
16.79000, 138.
16.82000, 138.
16.85000, 122.
16.88000, 152.
16.91000, 154.
16.94000, 132.
16.97000, 155.
17.00000, 158.
17.03000, 145.
17.06000, 142.
17.09000, 158.
17.12000, 155.
17.15000, 130.
17.18000, 139.
17.21000, 165.
17.24000, 143.
17.27000, 156.
17.30000, 157.
17.33000, 156.
17.36000, 151.
17.39000, 158.
17.42000, 152.
17.45000, 169.
17.48000, 172.
17.51000, 202.
17.54000, 194.
17.57000, 212.
17.60000, 212.
17.63000, 214.
17.66000, 207.
17.69000, 231.
17.72000, 187.
17.75000, 219.
17.78000, 205.
17.81000, 206.
17.84000, 199.
17.87000, 163.
17.90000, 206.
17.93000, 218.
17.96000, 224.
17.99000, 199.
18.02000, 213.
18.05000, 225.
18.08000, 220.
18.11000, 240.
18.14000, 249.
18.17000, 256.
18.20000, 245.
18.23000, 315.
18.26000, 291.
18.29000, 312.
18.32000, 338.
18.35000, 377.
18.38000, 387.
18.41000, 443.
18.44000, 477.
18.47000, 477.
18.50000, 505.
18.53000, 582.
18.56000, 666.
18.59000, 675.
18.62000, 721.
18.65000, 755.
18.68000, 813.
18.71000, 880.
18.74000, 862.
18.77000, 867.
18.80000, 867.
18.83000, 873.
18.86000, 866.
18.89000, 839.
18.92000, 794.
18.95000, 804.
18.98000, 685.
19.01000, 658.
19.04000, 626.
19.07000, 602.
19.10000, 520.
19.13000, 508.
19.16000, 469.
19.19000, 430.
19.22000, 381.
19.25000, 347.
19.28000, 337.
19.31000, 328.
19.34000, 299.
19.37000, 277.
19.40000, 265.
19.43000, 228.
19.46000, 237.
19.49000, 224.
19.52000, 201.
19.55000, 216.
19.58000, 169.
19.61000, 176.
19.64000, 187.
19.67000, 176.
19.70000, 180.
19.73000, 140.
19.76000, 159.
19.79000, 182.
19.82000, 179.
19.85000, 173.
19.88000, 187.
19.91000, 254.
19.94000, 264.
19.97000, 313.
20.00000, 363.
20.03000, 423.
20.06000, 508.
20.09000, 475.
20.12000, 514.
20.15000, 576.
20.18000, 526.
20.21000, 509.
20.24000, 478.
20.27000, 368.
20.30000, 290.
20.33000, 228.
20.36000, 208.
20.39000, 162.
20.42000, 167.
20.45000, 149.
20.48000, 148.
20.51000, 158.
20.54000, 166.
20.57000, 172.
20.60000, 173.
20.63000, 168.
20.66000, 195.
20.69000, 185.
20.72000, 193.
20.75000, 187.
20.78000, 205.
20.81000, 232.
20.84000, 240.
20.87000, 231.
20.90000, 217.
20.93000, 234.
20.96000, 274.
20.99000, 220.
21.02000, 205.
21.05000, 229.
21.08000, 235.
21.11000, 246.
21.14000, 223.
21.17000, 224.
21.20000, 238.
21.23000, 221.
21.26000, 188.
21.29000, 181.
21.32000, 185.
21.35000, 172.
21.38000, 157.
21.41000, 152.
21.44000, 143.
21.47000, 134.
21.50000, 130.
21.53000, 159.
21.56000, 120.
21.59000, 144.
21.62000, 122.
21.65000, 123.
21.68000, 120.
21.71000, 113.
21.74000, 108.
21.77000, 94.
21.80000, 115.
21.83000, 115.
21.86000, 116.
21.89000, 78.
21.92000, 80.
21.95000, 75.
21.98000, 89.
22.01000, 86.
22.04000, 97.
22.07000, 90.
22.10000, 92.
22.13000, 88.
22.16000, 85.
22.19000, 78.
22.22000, 90.
22.25000, 87.
22.28000, 80.
22.31000, 85.
22.34000, 75.
22.37000, 69.
22.40000, 77.
22.43000, 85.
22.46000, 82.
22.49000, 77.
22.52000, 95.
22.55000, 114.
22.58000, 116.
22.61000, 139.
22.64000, 138.
22.67000, 118.
22.70000, 140.
22.73000, 132.
22.76000, 121.
22.79000, 117.
22.82000, 87.
22.85000, 95.
22.88000, 69.
22.91000, 81.
22.94000, 89.
22.97000, 76.
23.00000, 70.
23.03000, 74.
23.06000, 81.
23.09000, 77.
23.12000, 91.
23.15000, 84.
23.18000, 70.
23.21000, 76.
23.24000, 77.
23.27000, 74.
23.30000, 61.
23.33000, 57.
23.36000, 66.
23.39000, 56.
23.42000, 68.
23.45000, 65.
23.48000, 71.
23.51000, 59.
23.54000, 76.
23.57000, 71.
23.60000, 68.
23.63000, 69.
23.66000, 68.
23.69000, 60.
23.72000, 57.
23.75000, 64.
23.78000, 60.
23.81000, 58.
23.84000, 73.
23.87000, 68.
23.90000, 59.
23.93000, 71.
23.96000, 63.
23.99000, 58.
24.02000, 61.
24.05000, 50.
24.08000, 59.
24.11000, 58.
24.14000, 73.
24.17000, 63.
24.20000, 61.
24.23000, 62.
24.26000, 54.
24.29000, 58.
24.32000, 56.
24.35000, 60.
24.38000, 64.
24.41000, 66.
24.44000, 74.
24.47000, 60.
24.50000, 64.
24.53000, 51.
24.56000, 63.
24.59000, 73.
24.62000, 65.
24.65000, 61.
24.68000, 88.
24.71000, 67.
24.74000, 51.
24.77000, 61.
24.80000, 61.
24.83000, 54.
24.86000, 66.
24.89000, 55.
24.92000, 89.
24.95000, 67.
24.98000, 67.
25.01000, 66.
25.04000, 54.
25.07000, 72.
25.10000, 70.
25.13000, 75.
25.16000, 52.
25.19000, 60.
25.22000, 67.
25.25000, 60.
25.28000, 69.
25.31000, 74.
25.34000, 60.
25.37000, 61.
25.40000, 62.
25.43000, 52.
25.46000, 61.
25.49000, 76.
25.52000, 49.
25.55000, 66.
25.58000, 72.
25.61000, 51.
25.64000, 55.
25.67000, 66.
25.70000, 60.
25.73000, 67.
25.76000, 52.
25.79000, 60.
25.82000, 57.
25.85000, 43.
25.88000, 44.
25.91000, 52.
25.94000, 39.
25.97000, 49.
26.00000, 46.
26.03000, 56.
26.06000, 53.
26.09000, 58.
26.12000, 44.
26.15000, 59.
26.18000, 53.
26.21000, 56.
26.24000, 62.
26.27000, 51.
26.30000, 46.
26.33000, 57.
26.36000, 57.
26.39000, 61.
26.42000, 66.
26.45000, 54.
26.48000, 62.
26.51000, 51.
26.54000, 50.
26.57000, 46.
26.60000, 35.
26.63000, 45.
26.66000, 35.
26.69000, 54.
26.72000, 55.
26.75000, 48.
26.78000, 48.
26.81000, 52.
26.84000, 48.
26.87000, 59.
26.90000, 46.
26.93000, 53.
26.96000, 39.
26.99000, 44.
27.02000, 45.
27.05000, 48.
27.08000, 50.
27.11000, 49.
27.14000, 43.
27.17000, 59.
27.20000, 47.
27.23000, 53.
27.26000, 59.
27.29000, 51.
27.32000, 51.
27.35000, 43.
27.38000, 45.
27.41000, 42.
27.44000, 48.
27.47000, 41.
27.50000, 46.
27.53000, 53.
27.56000, 52.
27.59000, 36.
27.62000, 42.
27.65000, 40.
27.68000, 43.
27.71000, 41.
27.74000, 44.
27.77000, 46.
27.80000, 56.
27.83000, 53.
27.86000, 37.
27.89000, 50.
27.92000, 35.
27.95000, 47.
27.98000, 29.
28.01000, 35.
28.04000, 51.
28.07000, 44.
28.10000, 43.
28.13000, 29.
28.16000, 35.
28.19000, 39.
28.22000, 53.
28.25000, 47.
28.28000, 40.
28.31000, 31.
28.34000, 45.
28.37000, 47.
28.40000, 55.
28.43000, 51.
28.46000, 34.
28.49000, 31.
28.52000, 41.
28.55000, 49.
28.58000, 39.
28.61000, 38.
28.64000, 41.
28.67000, 34.
28.70000, 37.
28.73000, 47.
28.76000, 44.
28.79000, 39.
28.82000, 49.
28.85000, 49.
28.88000, 34.
28.91000, 42.
28.94000, 33.
28.97000, 47.
29.00000, 34.
29.03000, 43.
29.06000, 35.
29.09000, 37.
29.12000, 40.
29.15000, 38.
29.18000, 36.
29.21000, 31.
29.24000, 35.
29.27000, 33.
29.30000, 40.
29.33000, 32.
29.36000, 41.
29.39000, 36.
29.42000, 45.
29.45000, 44.
29.48000, 44.
29.51000, 31.
29.54000, 56.
29.57000, 44.
29.60000, 30.
29.63000, 29.
29.66000, 27.
29.69000, 24.
29.72000, 36.
29.75000, 32.
29.78000, 43.
29.81000, 31.
29.84000, 29.
29.87000, 38.
29.90000, 41.
29.93000, 38.
29.96000, 41.
29.99000, 38.
30.02000, 37.
30.05000, 37.
30.08000, 27.
30.11000, 34.
30.14000, 31.
30.17000, 42.
30.20000, 34.
30.23000, 31.
30.26000, 35.
30.29000, 42.
30.32000, 30.
30.35000, 41.
30.38000, 37.
30.41000, 25.
30.44000, 23.
30.47000, 35.
30.50000, 24.
30.53000, 41.
30.56000, 21.
30.59000, 35.
30.62000, 35.
30.65000, 31.
30.68000, 36.
30.71000, 33.
30.74000, 23.
30.77000, 36.
30.80000, 30.
30.83000, 20.
30.86000, 35.
30.89000, 41.
30.92000, 29.
30.95000, 36.
30.98000, 37.
31.01000, 26.
31.04000, 28.
31.07000, 39.
31.10000, 39.
31.13000, 22.
31.16000, 21.
31.19000, 32.
31.22000, 22.
31.25000, 30.
31.28000, 36.
31.31000, 31.
31.34000, 31.
31.37000, 22.
31.40000, 26.
31.43000, 34.
31.46000, 18.
31.49000, 31.
31.52000, 25.
31.55000, 30.
31.58000, 29.
31.61000, 18.
31.64000, 38.
31.67000, 33.
31.70000, 22.
31.73000, 39.
31.76000, 36.
31.79000, 23.
31.82000, 32.
31.85000, 29.
31.88000, 26.
31.91000, 31.
31.94000, 22.
31.97000, 32.
32.00000, 21.
32.03000, 38.
32.06000, 28.
32.09000, 27.
32.12000, 28.
32.15000, 35.
32.18000, 35.
32.21000, 35.
32.24000, 29.
32.27000, 30.
32.30000, 24.
32.33000, 21.
32.36000, 35.
32.39000, 28.
32.42000, 25.
32.45000, 27.
32.48000, 23.
32.51000, 26.
32.54000, 27.
32.57000, 22.
32.60000, 19.
32.63000, 20.
32.66000, 18.
32.69000, 29.
32.72000, 30.
32.75000, 17.
32.78000, 21.
32.81000, 28.
32.84000, 29.
32.87000, 14.
32.90000, 27.
32.93000, 22.
32.96000, 27.
32.99000, 15.
33.02000, 20.
33.05000, 28.
33.08000, 21.
33.11000, 23.
33.14000, 19.
33.17000, 17.
33.20000, 18.
33.23000, 16.
33.26000, 17.
33.29000, 22.
33.32000, 23.
33.35000, 20.
33.38000, 33.
33.41000, 21.
33.44000, 16.
33.47000, 19.
33.50000, 18.
33.53000, 21.
33.56000, 19.
33.59000, 19.
33.62000, 20.
33.65000, 22.
33.68000, 25.
33.71000, 21.
33.74000, 24.
33.77000, 22.
33.80000, 30.
33.83000, 26.
33.86000, 16.
33.89000, 27.
33.92000, 22.
33.95000, 28.
33.98000, 19.
34.01000, 12.
34.04000, 19.
34.07000, 20.
34.10000, 27.
34.13000, 22.
34.16000, 25.
34.19000, 15.
34.22000, 17.
34.25000, 22.
34.28000, 23.
34.31000, 15.
34.34000, 14.
34.37000, 23.
34.40000, 14.
34.43000, 30.
34.46000, 23.
34.49000, 21.
34.52000, 16.
34.55000, 15.
34.58000, 18.
34.61000, 19.
34.64000, 24.
34.67000, 13.
34.70000, 17.
34.73000, 15.
34.76000, 19.
34.79000, 14.
34.82000, 14.
34.85000, 27.
34.88000, 22.
34.91000, 16.
34.94000, 20.
34.97000, 18.
35.00000, 13.
35.03000, 20.
35.06000, 21.
35.09000, 15.
35.12000, 12.
35.15000, 18.
35.18000, 18.
35.21000, 11.
35.24000, 11.
35.27000, 10.
35.30000, 18.
35.33000, 15.
35.36000, 15.
35.39000, 16.
35.42000, 15.
35.45000, 14.
35.48000, 14.
35.51000, 13.
35.54000, 22.
35.57000, 27.
35.60000, 12.
35.63000, 12.
35.66000, 16.
35.69000, 18.
35.72000, 18.
35.75000, 13.
35.78000, 16.
35.81000, 17.
35.84000, 7.
35.87000, 11.
35.90000, 15.
35.93000, 11.
35.96000, 14.
35.99000, 18.
36.02000, 16.
36.05000, 12.
36.08000, 13.
36.11000, 12.
36.14000, 18.
36.17000, 18.
36.20000, 18.
36.23000, 19.
36.26000, 18.
36.29000, 13.
36.32000, 7.
36.35000, 11.
36.38000, 14.
36.41000, 16.
36.44000, 11.
36.47000, 17.
36.50000, 16.
36.53000, 6.
36.56000, 16.
36.59000, 9.
36.62000, 12.
36.65000, 14.
36.68000, 11.
36.71000, 17.
36.74000, 12.
36.77000, 13.
36.80000, 10.
36.83000, 12.
36.86000, 8.
36.89000, 12.
36.92000, 11.
36.95000, 5.
36.98000, 13.
37.01000, 13.
37.04000, 15.
37.07000, 10.
37.10000, 13.
37.13000, 11.
37.16000, 4.
37.19000, 12.
37.22000, 11.
37.25000, 12.
37.28000, 9.
37.31000, 10.
37.34000, 5.
37.37000, 13.
37.40000, 9.
37.43000, 4.
37.46000, 15.
37.49000, 10.
37.52000, 9.
37.55000, 6.
37.58000, 14.
37.61000, 14.
37.64000, 10.
37.67000, 9.
37.70000, 13.
37.73000, 7.
37.76000, 7.
37.79000, 11.
37.82000, 6.
37.85000, 11.
37.88000, 7.
37.91000, 11.
37.94000, 10.
37.97000, 12.
38.00000, 12.
38.03000, 6.
38.06000, 8.
38.09000, 10.
38.12000, 4.
38.15000, 10.
38.18000, 10.
38.21000, 11.
38.24000, 11.
38.27000, 4.
38.30000, 11.
38.33000, 9.
38.36000, 15.
38.39000, 11.
38.42000, 13.
38.45000, 6.
38.48000, 8.
38.51000, 6.
38.54000, 10.
38.57000, 10.
38.60000, 6.
38.63000, 9.
38.66000, 11.
38.69000, 3.
38.72000, 4.
38.75000, 11.
38.78000, 12.
38.81000, 11.
38.84000, 9.
38.87000, 11.
38.90000, 10.
38.93000, 9.
38.96000, 11.
38.99000, 9.
39.02000, 4.
39.05000, 4.
39.08000, 3.
39.11000, 6.
39.14000, 8.
39.17000, 4.
39.20000, 7.
39.23000, 9.
39.26000, 4.
39.29000, 11.
39.32000, 6.
39.35000, 5.
39.38000, 5.
39.41000, 7.
39.44000, 7.
39.47000, 6.
39.50000, 4.
39.53000, 6.
39.56000, 9.
39.59000, 7.
39.62000, 4.
39.65000, 6.
39.68000, 7.
39.71000, 8.
39.74000, 6.
39.77000, 7.
39.80000, 8.
39.83000, 6.
39.86000, 2.
39.89000, 4.
39.92000, 5.
39.95000, 5.
39.98000, 4.
40.01000, 7.
40.04000, 4.
40.07000, 4.
40.10000, 4.
40.13000, 6.
40.16000, 8.
40.19000, 3.
40.22000, 6.
40.25000, 4.
40.28000, 6.
40.31000, 3.
40.34000, 5.
40.37000, 3.
40.40000, 4.
40.43000, 5.
40.46000, 1.
40.49000, 7.
40.52000, 1.
40.55000, 0.
#ENDOFDATA   :