File: sample_data/data/Spectrum value from standard/Nist 2586/Spectrum 26.txt
#FORMAT      : EMSA/MAS Spectral Data File
#VERSION     : 1.0
#TITLE       : Spectrum 26
#DATE        : 21-AUG-2025
#TIME        : 15:30
#OWNER       : XGT7200
#NPOINTS     : 4096.
#NCOLUMNS    : 1.
#XUNITS      : keV
#YUNITS      : counts
#DATATYPE    : XY
#XPERCHAN    : 0.0100000
#OFFSET      : -0.400000
#SIGNALTYPE  : EDS
#CHOFFSET    : 40.0000
#LIVETIME    : 30
#REALTIME    : 39.6994
#BEAMKV      : 50.0000
#PROBECUR    : 673000.
#MAGCAM      : 100.000
#XTILTSTGE   : 0.0
#AZIMANGLE   : 0.0
#ELEVANGLE   : 45.0
#XPOSITION mm: 0.0000
#YPOSITION mm: 0.0000
#ZPOSITION mm: 0.0000
##OXINSTPT   : 4
##OXINSTSTROB: 71.95
#SPECTRUM    : Spectral Data Starts Here
-0.40000, 0.
-0.37000, 0.
-0.34000, 0.
-0.31000, 0.
-0.28000, 0.
-0.25000, 0.
-0.22000, 0.
-0.19000, 0.
-0.16000, 0.
-0.13000, 0.
-0.10000, 0.
-0.07000, 0.
-0.04000, 0.
-0.01000, 0.
0.02000, 0.
0.05000, 0.
0.08000, 0.
0.11000, 0.
0.14000, 0.
0.17000, 0.
0.20000, 0.
0.23000, 0.
0.26000, 0.
0.29000, 0.
0.32000, 0.
0.35000, 3.
0.38000, 8.
0.41000, 21.
0.44000, 45.
0.47000, 35.
0.50000, 29.
0.53000, 43.
0.56000, 47.
0.59000, 50.
0.62000, 39.
0.65000, 48.
0.68000, 33.
0.71000, 43.
0.74000, 39.
0.77000, 47.
0.80000, 26.
0.83000, 34.
0.86000, 40.
0.89000, 47.
0.92000, 44.
0.95000, 36.
0.98000, 40.
1.01000, 45.
1.04000, 44.
1.07000, 43.
1.10000, 42.
1.13000, 40.
1.16000, 47.
1.19000, 48.
1.22000, 83.
1.25000, 92.
1.28000, 94.
1.31000, 56.
1.34000, 41.
1.37000, 43.
1.40000, 101.
1.43000, 243.
1.46000, 582.
1.49000, 801.
1.52000, 618.
1.55000, 351.
1.58000, 149.
1.61000, 109.
1.64000, 322.
1.67000, 1253.
1.70000, 3582.
1.73000, 6118.
1.76000, 6052.
1.79000, 3876.
1.82000, 1567.
1.85000, 554.
1.88000, 240.
1.91000, 88.
1.94000, 85.
1.97000, 71.
2.00000, 74.
2.03000, 72.
2.06000, 57.
2.09000, 37.
2.12000, 26.
2.15000, 29.
2.18000, 31.
2.21000, 36.
2.24000, 47.
2.27000, 54.
2.30000, 74.
2.33000, 76.
2.36000, 69.
2.39000, 56.
2.42000, 49.
2.45000, 42.
2.48000, 34.
2.51000, 41.
2.54000, 57.
2.57000, 61.
2.60000, 98.
2.63000, 209.
2.66000, 428.
2.69000, 520.
2.72000, 499.
2.75000, 375.
2.78000, 257.
2.81000, 270.
2.84000, 291.
2.87000, 272.
2.90000, 189.
2.93000, 128.
2.96000, 84.
2.99000, 68.
3.02000, 63.
3.05000, 42.
3.08000, 31.
3.11000, 27.
3.14000, 35.
3.17000, 38.
3.20000, 58.
3.23000, 113.
3.26000, 232.
3.29000, 382.
3.32000, 479.
3.35000, 379.
3.38000, 223.
3.41000, 116.
3.44000, 48.
3.47000, 44.
3.50000, 56.
3.53000, 66.
3.56000, 142.
3.59000, 255.
3.62000, 497.
3.65000, 969.
3.68000, 1367.
3.71000, 1379.
3.74000, 955.
3.77000, 524.
3.80000, 190.
3.83000, 61.
3.86000, 39.
3.89000, 49.
3.92000, 68.
3.95000, 125.
3.98000, 176.
4.01000, 246.
4.04000, 188.
4.07000, 137.
4.10000, 75.
4.13000, 55.
4.16000, 39.
4.19000, 32.
4.22000, 33.
4.25000, 28.
4.28000, 35.
4.31000, 36.
4.34000, 34.
4.37000, 57.
4.40000, 136.
4.43000, 268.
4.46000, 488.
4.49000, 668.
4.52000, 709.
4.55000, 610.
4.58000, 401.
4.61000, 219.
4.64000, 142.
4.67000, 120.
4.70000, 109.
4.73000, 85.
4.76000, 66.
4.79000, 85.
4.82000, 84.
4.85000, 105.
4.88000, 149.
4.91000, 176.
4.94000, 173.
4.97000, 144.
5.00000, 109.
5.03000, 86.
5.06000, 60.
5.09000, 47.
5.12000, 41.
5.15000, 57.
5.18000, 49.
5.21000, 58.
5.24000, 55.
5.27000, 57.
5.30000, 57.
5.33000, 72.
5.36000, 108.
5.39000, 121.
5.42000, 141.
5.45000, 119.
5.48000, 100.
5.51000, 88.
5.54000, 81.
5.57000, 74.
5.60000, 68.
5.63000, 55.
5.66000, 56.
5.69000, 36.
5.72000, 54.
5.75000, 58.
5.78000, 92.
5.81000, 160.
5.84000, 223.
5.87000, 295.
5.90000, 325.
5.93000, 313.
5.96000, 206.
5.99000, 146.
6.02000, 105.
6.05000, 81.
6.08000, 84.
6.11000, 101.
6.14000, 106.
6.17000, 128.
6.20000, 249.
6.23000, 561.
6.26000, 1353.
6.29000, 3527.
6.32000, 7306.
6.35000, 12313.
6.38000, 15933.
6.41000, 16724.
6.44000, 13843.
6.47000, 8965.
6.50000, 4618.
6.53000, 1931.
6.56000, 623.
6.59000, 277.
6.62000, 110.
6.65000, 106.
6.68000, 99.
6.71000, 110.
6.74000, 101.
6.77000, 110.
6.80000, 126.
6.83000, 140.
6.86000, 173.
6.89000, 268.
6.92000, 503.
6.95000, 858.
6.98000, 1479.
7.01000, 2178.
7.04000, 2641.
7.07000, 2532.
7.10000, 2089.
7.13000, 1404.
7.16000, 773.
7.19000, 367.
7.22000, 154.
7.25000, 110.
7.28000, 100.
7.31000, 79.
7.34000, 64.
7.37000, 78.
7.40000, 86.
7.43000, 84.
7.46000, 102.
7.49000, 84.
7.52000, 80.
7.55000, 69.
7.58000, 81.
7.61000, 71.
7.64000, 74.
7.67000, 58.
7.70000, 86.
7.73000, 79.
7.76000, 70.
7.79000, 79.
7.82000, 87.
7.85000, 98.
7.88000, 94.
7.91000, 100.
7.94000, 106.
7.97000, 129.
8.00000, 150.
8.03000, 152.
8.06000, 147.
8.09000, 150.
8.12000, 162.
8.15000, 160.
8.18000, 126.
8.21000, 116.
8.24000, 131.
8.27000, 100.
8.30000, 108.
8.33000, 105.
8.36000, 99.
8.39000, 89.
8.42000, 118.
8.45000, 101.
8.48000, 116.
8.51000, 143.
8.54000, 210.
8.57000, 197.
8.60000, 276.
8.63000, 253.
8.66000, 264.
8.69000, 218.
8.72000, 191.
8.75000, 150.
8.78000, 120.
8.81000, 110.
8.84000, 120.
8.87000, 109.
8.90000, 117.
8.93000, 80.
8.96000, 101.
8.99000, 105.
9.02000, 129.
9.05000, 120.
9.08000, 133.
9.11000, 101.
9.14000, 132.
9.17000, 140.
9.20000, 130.
9.23000, 137.
9.26000, 133.
9.29000, 116.
9.32000, 109.
9.35000, 104.
9.38000, 109.
9.41000, 111.
9.44000, 122.
9.47000, 116.
9.50000, 131.
9.53000, 145.
9.56000, 145.
9.59000, 153.
9.62000, 145.
9.65000, 142.
9.68000, 147.
9.71000, 125.
9.74000, 128.
9.77000, 97.
9.80000, 123.
9.83000, 133.
9.86000, 125.
9.89000, 102.
9.92000, 124.
9.95000, 116.
9.98000, 117.
10.01000, 122.
10.04000, 135.
10.07000, 120.
10.10000, 127.
10.13000, 119.
10.16000, 110.
10.19000, 127.
10.22000, 111.
10.25000, 112.
10.28000, 121.
10.31000, 145.
10.34000, 106.
10.37000, 133.
10.40000, 154.
10.43000, 174.
10.46000, 187.
10.49000, 219.
10.52000, 264.
10.55000, 265.
10.58000, 235.
10.61000, 216.
10.64000, 189.
10.67000, 149.
10.70000, 163.
10.73000, 133.
10.76000, 108.
10.79000, 126.
10.82000, 130.
10.85000, 133.
10.88000, 130.
10.91000, 128.
10.94000, 123.
10.97000, 130.
11.00000, 128.
11.03000, 136.
11.06000, 134.
11.09000, 137.
11.12000, 116.
11.15000, 126.
11.18000, 127.
11.21000, 134.
11.24000, 137.
11.27000, 117.
11.30000, 137.
11.33000, 119.
11.36000, 112.
11.39000, 117.
11.42000, 152.
11.45000, 143.
11.48000, 123.
11.51000, 131.
11.54000, 159.
11.57000, 110.
11.60000, 119.
11.63000, 126.
11.66000, 128.
11.69000, 125.
11.72000, 130.
11.75000, 138.
11.78000, 145.
11.81000, 130.
11.84000, 135.
11.87000, 162.
11.90000, 115.
11.93000, 145.
11.96000, 128.
11.99000, 141.
12.02000, 126.
12.05000, 128.
12.08000, 145.
12.11000, 137.
12.14000, 133.
12.17000, 149.
12.20000, 154.
12.23000, 149.
12.26000, 169.
12.29000, 144.
12.32000, 152.
12.35000, 138.
12.38000, 154.
12.41000, 130.
12.44000, 146.
12.47000, 190.
12.50000, 195.
12.53000, 223.
12.56000, 272.
12.59000, 235.
12.62000, 276.
12.65000, 276.
12.68000, 237.
12.71000, 200.
12.74000, 244.
12.77000, 204.
12.80000, 181.
12.83000, 192.
12.86000, 197.
12.89000, 156.
12.92000, 176.
12.95000, 166.
12.98000, 148.
13.01000, 182.
13.04000, 151.
13.07000, 168.
13.10000, 144.
13.13000, 145.
13.16000, 142.
13.19000, 154.
13.22000, 155.
13.25000, 165.
13.28000, 185.
13.31000, 187.
13.34000, 210.
13.37000, 179.
13.40000, 228.
13.43000, 188.
13.46000, 179.
13.49000, 191.
13.52000, 165.
13.55000, 158.
13.58000, 144.
13.61000, 152.
13.64000, 138.
13.67000, 113.
13.70000, 121.
13.73000, 108.
13.76000, 137.
13.79000, 137.
13.82000, 128.
13.85000, 163.
13.88000, 133.
13.91000, 134.
13.94000, 173.
13.97000, 157.
14.00000, 170.
14.03000, 186.
14.06000, 208.
14.09000, 198.
14.12000, 235.
14.15000, 225.
14.18000, 232.
14.21000, 200.
14.24000, 187.
14.27000, 166.
14.30000, 154.
14.33000, 161.
14.36000, 144.
14.39000, 123.
14.42000, 132.
14.45000, 129.
14.48000, 143.
14.51000, 134.
14.54000, 128.
14.57000, 148.
14.60000, 136.
14.63000, 161.
14.66000, 164.
14.69000, 168.
14.72000, 178.
14.75000, 163.
14.78000, 147.
14.81000, 163.
14.84000, 168.
14.87000, 171.
14.90000, 174.
14.93000, 176.
14.96000, 178.
14.99000, 191.
15.02000, 150.
15.05000, 132.
15.08000, 166.
15.11000, 131.
15.14000, 139.
15.17000, 153.
15.20000, 142.
15.23000, 146.
15.26000, 149.
15.29000, 134.
15.32000, 151.
15.35000, 127.
15.38000, 136.
15.41000, 164.
15.44000, 146.
15.47000, 151.
15.50000, 152.
15.53000, 182.
15.56000, 200.
15.59000, 230.
15.62000, 293.
15.65000, 319.
15.68000, 345.
15.71000, 416.
15.74000, 405.
15.77000, 378.
15.80000, 329.
15.83000, 301.
15.86000, 234.
15.89000, 210.
15.92000, 198.
15.95000, 171.
15.98000, 156.
16.01000, 132.
16.04000, 146.
16.07000, 131.
16.10000, 161.
16.13000, 128.
16.16000, 124.
16.19000, 148.
16.22000, 122.
16.25000, 143.
16.28000, 149.
16.31000, 146.
16.34000, 130.
16.37000, 148.
16.40000, 129.
16.43000, 146.
16.46000, 162.
16.49000, 150.
16.52000, 134.
16.55000, 145.
16.58000, 135.
16.61000, 153.
16.64000, 168.
16.67000, 154.
16.70000, 130.
16.73000, 134.
16.76000, 128.
16.79000, 144.
16.82000, 162.
16.85000, 143.
16.88000, 132.
16.91000, 121.
16.94000, 128.
16.97000, 112.
17.00000, 146.
17.03000, 146.
17.06000, 157.
17.09000, 156.
17.12000, 121.
17.15000, 141.
17.18000, 148.
17.21000, 141.
17.24000, 160.
17.27000, 128.
17.30000, 172.
17.33000, 158.
17.36000, 133.
17.39000, 164.
17.42000, 142.
17.45000, 167.
17.48000, 185.
17.51000, 167.
17.54000, 181.
17.57000, 193.
17.60000, 190.
17.63000, 200.
17.66000, 202.
17.69000, 203.
17.72000, 205.
17.75000, 202.
17.78000, 189.
17.81000, 179.
17.84000, 223.
17.87000, 182.
17.90000, 215.
17.93000, 198.
17.96000, 221.
17.99000, 213.
18.02000, 212.
18.05000, 212.
18.08000, 236.
18.11000, 224.
18.14000, 237.
18.17000, 269.
18.20000, 247.
18.23000, 273.
18.26000, 271.
18.29000, 308.
18.32000, 317.
18.35000, 325.
18.38000, 390.
18.41000, 417.
18.44000, 394.
18.47000, 502.
18.50000, 577.
18.53000, 594.
18.56000, 634.
18.59000, 636.
18.62000, 724.
18.65000, 760.
18.68000, 792.
18.71000, 772.
18.74000, 817.
18.77000, 841.
18.80000, 836.
18.83000, 888.
18.86000, 811.
18.89000, 754.
18.92000, 753.
18.95000, 723.
18.98000, 693.
19.01000, 602.
19.04000, 557.
19.07000, 590.
19.10000, 533.
19.13000, 485.
19.16000, 411.
19.19000, 392.
19.22000, 345.
19.25000, 377.
19.28000, 343.
19.31000, 339.
19.34000, 284.
19.37000, 258.
19.40000, 259.
19.43000, 260.
19.46000, 227.
19.49000, 231.
19.52000, 205.
19.55000, 227.
19.58000, 177.
19.61000, 164.
19.64000, 162.
19.67000, 203.
19.70000, 173.
19.73000, 169.
19.76000, 161.
19.79000, 156.
19.82000, 171.
19.85000, 174.
19.88000, 202.
19.91000, 246.
19.94000, 259.
19.97000, 320.
20.00000, 325.
20.03000, 382.
20.06000, 422.
20.09000, 505.
20.12000, 503.
20.15000, 543.
20.18000, 533.
20.21000, 494.
20.24000, 419.
20.27000, 328.
20.30000, 323.
20.33000, 252.
20.36000, 219.
20.39000, 203.
20.42000, 165.
20.45000, 128.
20.48000, 174.
20.51000, 133.
20.54000, 142.
20.57000, 157.
20.60000, 160.
20.63000, 176.
20.66000, 157.
20.69000, 181.
20.72000, 188.
20.75000, 202.
20.78000, 204.
20.81000, 190.
20.84000, 206.
20.87000, 228.
20.90000, 236.
20.93000, 239.
20.96000, 263.
20.99000, 234.
21.02000, 240.
21.05000, 218.
21.08000, 243.
21.11000, 228.
21.14000, 237.
21.17000, 209.
21.20000, 225.
21.23000, 178.
21.26000, 198.
21.29000, 201.
21.32000, 181.
21.35000, 166.
21.38000, 141.
21.41000, 152.
21.44000, 149.
21.47000, 148.
21.50000, 132.
21.53000, 144.
21.56000, 132.
21.59000, 110.
21.62000, 124.
21.65000, 107.
21.68000, 118.
21.71000, 102.
21.74000, 112.
21.77000, 124.
21.80000, 101.
21.83000, 109.
21.86000, 88.
21.89000, 83.
21.92000, 81.
21.95000, 102.
21.98000, 84.
22.01000, 100.
22.04000, 69.
22.07000, 106.
22.10000, 82.
22.13000, 98.
22.16000, 87.
22.19000, 94.
22.22000, 84.
22.25000, 79.
22.28000, 93.
22.31000, 88.
22.34000, 74.
22.37000, 72.
22.40000, 88.
22.43000, 62.
22.46000, 91.
22.49000, 86.
22.52000, 109.
22.55000, 107.
22.58000, 110.
22.61000, 118.
22.64000, 134.
22.67000, 141.
22.70000, 140.
22.73000, 128.
22.76000, 119.
22.79000, 121.
22.82000, 87.
22.85000, 91.
22.88000, 74.
22.91000, 74.
22.94000, 73.
22.97000, 80.
23.00000, 64.
23.03000, 88.
23.06000, 82.
23.09000, 71.
23.12000, 73.
23.15000, 80.
23.18000, 74.
23.21000, 78.
23.24000, 83.
23.27000, 64.
23.30000, 80.
23.33000, 67.
23.36000, 64.
23.39000, 82.
23.42000, 64.
23.45000, 68.
23.48000, 66.
23.51000, 64.
23.54000, 70.
23.57000, 67.
23.60000, 56.
23.63000, 72.
23.66000, 65.
23.69000, 60.
23.72000, 61.
23.75000, 65.
23.78000, 67.
23.81000, 53.
23.84000, 61.
23.87000, 57.
23.90000, 65.
23.93000, 49.
23.96000, 59.
23.99000, 70.
24.02000, 46.
24.05000, 66.
24.08000, 75.
24.11000, 67.
24.14000, 53.
24.17000, 55.
24.20000, 67.
24.23000, 71.
24.26000, 56.
24.29000, 59.
24.32000, 64.
24.35000, 66.
24.38000, 55.
24.41000, 67.
24.44000, 64.
24.47000, 67.
24.50000, 58.
24.53000, 47.
24.56000, 64.
24.59000, 74.
24.62000, 60.
24.65000, 51.
24.68000, 61.
24.71000, 70.
24.74000, 65.
24.77000, 66.
24.80000, 47.
24.83000, 66.
24.86000, 64.
24.89000, 67.
24.92000, 85.
24.95000, 64.
24.98000, 61.
25.01000, 66.
25.04000, 62.
25.07000, 75.
25.10000, 64.
25.13000, 73.
25.16000, 60.
25.19000, 82.
25.22000, 59.
25.25000, 73.
25.28000, 72.
25.31000, 60.
25.34000, 59.
25.37000, 62.
25.40000, 60.
25.43000, 58.
25.46000, 54.
25.49000, 45.
25.52000, 58.
25.55000, 51.
25.58000, 48.
25.61000, 67.
25.64000, 42.
25.67000, 50.
25.70000, 58.
25.73000, 68.
25.76000, 56.
25.79000, 58.
25.82000, 69.
25.85000, 49.
25.88000, 46.
25.91000, 50.
25.94000, 53.
25.97000, 52.
26.00000, 58.
26.03000, 50.
26.06000, 53.
26.09000, 61.
26.12000, 51.
26.15000, 56.
26.18000, 45.
26.21000, 69.
26.24000, 53.
26.27000, 51.
26.30000, 50.
26.33000, 51.
26.36000, 66.
26.39000, 63.
26.42000, 58.
26.45000, 56.
26.48000, 58.
26.51000, 54.
26.54000, 48.
26.57000, 50.
26.60000, 66.
26.63000, 52.
26.66000, 56.
26.69000, 57.
26.72000, 39.
26.75000, 56.
26.78000, 47.
26.81000, 39.
26.84000, 51.
26.87000, 47.
26.90000, 51.
26.93000, 55.
26.96000, 47.
26.99000, 50.
27.02000, 48.
27.05000, 35.
27.08000, 41.
27.11000, 51.
27.14000, 50.
27.17000, 43.
27.20000, 43.
27.23000, 47.
27.26000, 61.
27.29000, 49.
27.32000, 43.
27.35000, 54.
27.38000, 54.
27.41000, 47.
27.44000, 48.
27.47000, 50.
27.50000, 39.
27.53000, 34.
27.56000, 43.
27.59000, 48.
27.62000, 48.
27.65000, 48.
27.68000, 49.
27.71000, 45.
27.74000, 30.
27.77000, 42.
27.80000, 45.
27.83000, 42.
27.86000, 53.
27.89000, 37.
27.92000, 44.
27.95000, 41.
27.98000, 47.
28.01000, 44.
28.04000, 44.
28.07000, 46.
28.10000, 43.
28.13000, 55.
28.16000, 43.
28.19000, 44.
28.22000, 53.
28.25000, 44.
28.28000, 47.
28.31000, 38.
28.34000, 44.
28.37000, 38.
28.40000, 42.
28.43000, 35.
28.46000, 50.
28.49000, 39.
28.52000, 34.
28.55000, 46.
28.58000, 30.
28.61000, 44.
28.64000, 33.
28.67000, 43.
28.70000, 41.
28.73000, 38.
28.76000, 35.
28.79000, 36.
28.82000, 43.
28.85000, 29.
28.88000, 34.
28.91000, 28.
28.94000, 42.
28.97000, 42.
29.00000, 29.
29.03000, 42.
29.06000, 36.
29.09000, 46.
29.12000, 36.
29.15000, 39.
29.18000, 46.
29.21000, 39.
29.24000, 31.
29.27000, 40.
29.30000, 37.
29.33000, 37.
29.36000, 47.
29.39000, 26.
29.42000, 47.
29.45000, 41.
29.48000, 39.
29.51000, 35.
29.54000, 33.
29.57000, 51.
29.60000, 31.
29.63000, 40.
29.66000, 34.
29.69000, 32.
29.72000, 27.
29.75000, 34.
29.78000, 45.
29.81000, 37.
29.84000, 38.
29.87000, 35.
29.90000, 22.
29.93000, 22.
29.96000, 29.
29.99000, 27.
30.02000, 43.
30.05000, 46.
30.08000, 39.
30.11000, 35.
30.14000, 43.
30.17000, 31.
30.20000, 33.
30.23000, 22.
30.26000, 34.
30.29000, 29.
30.32000, 25.
30.35000, 25.
30.38000, 32.
30.41000, 33.
30.44000, 36.
30.47000, 31.
30.50000, 36.
30.53000, 38.
30.56000, 35.
30.59000, 34.
30.62000, 30.
30.65000, 30.
30.68000, 28.
30.71000, 18.
30.74000, 28.
30.77000, 28.
30.80000, 29.
30.83000, 28.
30.86000, 30.
30.89000, 26.
30.92000, 25.
30.95000, 27.
30.98000, 26.
31.01000, 28.
31.04000, 31.
31.07000, 27.
31.10000, 25.
31.13000, 27.
31.16000, 31.
31.19000, 26.
31.22000, 35.
31.25000, 18.
31.28000, 32.
31.31000, 24.
31.34000, 20.
31.37000, 31.
31.40000, 24.
31.43000, 27.
31.46000, 26.
31.49000, 27.
31.52000, 24.
31.55000, 23.
31.58000, 29.
31.61000, 33.
31.64000, 27.
31.67000, 25.
31.70000, 27.
31.73000, 34.
31.76000, 19.
31.79000, 17.
31.82000, 37.
31.85000, 21.
31.88000, 27.
31.91000, 34.
31.94000, 24.
31.97000, 34.
32.00000, 24.
32.03000, 26.
32.06000, 32.
32.09000, 19.
32.12000, 30.
32.15000, 23.
32.18000, 31.
32.21000, 31.
32.24000, 23.
32.27000, 27.
32.30000, 29.
32.33000, 27.
32.36000, 15.
32.39000, 29.
32.42000, 14.
32.45000, 24.
32.48000, 23.
32.51000, 33.
32.54000, 31.
32.57000, 16.
32.60000, 21.
32.63000, 32.
32.66000, 23.
32.69000, 27.
32.72000, 18.
32.75000, 23.
32.78000, 29.
32.81000, 23.
32.84000, 25.
32.87000, 20.
32.90000, 19.
32.93000, 21.
32.96000, 18.
32.99000, 19.
33.02000, 31.
33.05000, 26.
33.08000, 25.
33.11000, 12.
33.14000, 22.
33.17000, 19.
33.20000, 28.
33.23000, 15.
33.26000, 21.
33.29000, 21.
33.32000, 27.
33.35000, 28.
33.38000, 25.
33.41000, 21.
33.44000, 27.
33.47000, 24.
33.50000, 22.
33.53000, 24.
33.56000, 24.
33.59000, 24.
33.62000, 26.
33.65000, 22.
33.68000, 21.
33.71000, 24.
33.74000, 13.
33.77000, 17.
33.80000, 21.
33.83000, 13.
33.86000, 18.
33.89000, 25.
33.92000, 23.
33.95000, 19.
33.98000, 17.
34.01000, 15.
34.04000, 18.
34.07000, 26.
34.10000, 25.
34.13000, 21.
34.16000, 11.
34.19000, 22.
34.22000, 16.
34.25000, 16.
34.28000, 24.
34.31000, 9.
34.34000, 19.
34.37000, 31.
34.40000, 12.
34.43000, 16.
34.46000, 20.
34.49000, 22.
34.52000, 27.
34.55000, 13.
34.58000, 17.
34.61000, 18.
34.64000, 20.
34.67000, 20.
34.70000, 17.
34.73000, 19.
34.76000, 21.
34.79000, 10.
34.82000, 20.
34.85000, 18.
34.88000, 19.
34.91000, 15.
34.94000, 10.
34.97000, 25.
35.00000, 13.
35.03000, 16.
35.06000, 10.
35.09000, 14.
35.12000, 18.
35.15000, 11.
35.18000, 9.
35.21000, 14.
35.24000, 18.
35.27000, 9.
35.30000, 16.
35.33000, 16.
35.36000, 16.
35.39000, 18.
35.42000, 13.
35.45000, 21.
35.48000, 13.
35.51000, 21.
35.54000, 14.
35.57000, 20.
35.60000, 14.
35.63000, 14.
35.66000, 11.
35.69000, 13.
35.72000, 14.
35.75000, 13.
35.78000, 12.
35.81000, 4.
35.84000, 15.
35.87000, 10.
35.90000, 11.
35.93000, 20.
35.96000, 11.
35.99000, 12.
36.02000, 15.
36.05000, 17.
36.08000, 15.
36.11000, 12.
36.14000, 12.
36.17000, 12.
36.20000, 16.
36.23000, 12.
36.26000, 18.
36.29000, 11.
36.32000, 13.
36.35000, 9.
36.38000, 14.
36.41000, 17.
36.44000, 16.
36.47000, 13.
36.50000, 12.
36.53000, 15.
36.56000, 10.
36.59000, 5.
36.62000, 12.
36.65000, 13.
36.68000, 12.
36.71000, 11.
36.74000, 10.
36.77000, 6.
36.80000, 9.
36.83000, 11.
36.86000, 9.
36.89000, 12.
36.92000, 14.
36.95000, 13.
36.98000, 12.
37.01000, 16.
37.04000, 16.
37.07000, 13.
37.10000, 11.
37.13000, 2.
37.16000, 12.
37.19000, 7.
37.22000, 13.
37.25000, 21.
37.28000, 12.
37.31000, 5.
37.34000, 14.
37.37000, 21.
37.40000, 11.
37.43000, 13.
37.46000, 9.
37.49000, 10.
37.52000, 10.
37.55000, 4.
37.58000, 5.
37.61000, 11.
37.64000, 8.
37.67000, 8.
37.70000, 11.
37.73000, 7.
37.76000, 11.
37.79000, 12.
37.82000, 10.
37.85000, 7.
37.88000, 4.
37.91000, 7.
37.94000, 8.
37.97000, 6.
38.00000, 16.
38.03000, 8.
38.06000, 7.
38.09000, 7.
38.12000, 9.
38.15000, 9.
38.18000, 3.
38.21000, 8.
38.24000, 5.
38.27000, 5.
38.30000, 5.
38.33000, 9.
38.36000, 8.
38.39000, 9.
38.42000, 9.
38.45000, 8.
38.48000, 7.
38.51000, 5.
38.54000, 10.
38.57000, 7.
38.60000, 6.
38.63000, 11.
38.66000, 4.
38.69000, 4.
38.72000, 3.
38.75000, 3.
38.78000, 11.
38.81000, 5.
38.84000, 6.
38.87000, 5.
38.90000, 5.
38.93000, 4.
38.96000, 6.
38.99000, 9.
39.02000, 9.
39.05000, 10.
39.08000, 8.
39.11000, 8.
39.14000, 4.
39.17000, 3.
39.20000, 5.
39.23000, 5.
39.26000, 8.
39.29000, 4.
39.32000, 6.
39.35000, 9.
39.38000, 9.
39.41000, 4.
39.44000, 3.
39.47000, 4.
39.50000, 10.
39.53000, 8.
39.56000, 7.
39.59000, 11.
39.62000, 5.
39.65000, 11.
39.68000, 5.
39.71000, 9.
39.74000, 9.
39.77000, 3.
39.80000, 2.
39.83000, 4.
39.86000, 4.
39.89000, 4.
39.92000, 3.
39.95000, 6.
39.98000, 3.
40.01000, 4.
40.04000, 6.
40.07000, 1.
40.10000, 3.
40.13000, 7.
40.16000, 6.
40.19000, 4.
40.22000, 3.
40.25000, 2.
40.28000, 5.
40.31000, 8.
40.34000, 6.
40.37000, 2.
40.40000, 4.
40.43000, 4.
40.46000, 6.
40.49000, 5.
40.52000, 4.
40.55000, 0.
#ENDOFDATA   :