File: sample_data/data/Spectrum value from standard/Till 1/Spectrum 1, till 1.txt
#FORMAT      : EMSA/MAS Spectral Data File
#VERSION     : 1.0
#TITLE       : Spectrum 1
#DATE        : 21-AUG-2025
#TIME        : 15:05
#OWNER       : XGT7200
#NPOINTS     : 4096.
#NCOLUMNS    : 1.
#XUNITS      : keV
#YUNITS      : counts
#DATATYPE    : XY
#XPERCHAN    : 0.0100000
#OFFSET      : -0.400000
#SIGNALTYPE  : EDS
#CHOFFSET    : 40.0000
#LIVETIME    : 30
#REALTIME    : 39.5988
#BEAMKV      : 50.0000
#PROBECUR    : 733000.
#MAGCAM      : 100.000
#XTILTSTGE   : 0.0
#AZIMANGLE   : 0.0
#ELEVANGLE   : 45.0
#XPOSITION mm: 0.0000
#YPOSITION mm: 0.0000
#ZPOSITION mm: 0.0000
##OXINSTPT   : 4
##OXINSTSTROB: 71.96
#SPECTRUM    : Spectral Data Starts Here
-0.40000, 0.
-0.37000, 0.
-0.34000, 0.
-0.31000, 0.
-0.28000, 0.
-0.25000, 0.
-0.22000, 0.
-0.19000, 0.
-0.16000, 0.
-0.13000, 0.
-0.10000, 0.
-0.07000, 0.
-0.04000, 0.
-0.01000, 0.
0.02000, 0.
0.05000, 0.
0.08000, 0.
0.11000, 0.
0.14000, 0.
0.17000, 0.
0.20000, 0.
0.23000, 0.
0.26000, 0.
0.29000, 0.
0.32000, 0.
0.35000, 3.
0.38000, 16.
0.41000, 24.
0.44000, 32.
0.47000, 44.
0.50000, 43.
0.53000, 49.
0.56000, 35.
0.59000, 39.
0.62000, 55.
0.65000, 32.
0.68000, 45.
0.71000, 26.
0.74000, 40.
0.77000, 33.
0.80000, 30.
0.83000, 29.
0.86000, 35.
0.89000, 32.
0.92000, 46.
0.95000, 56.
0.98000, 45.
1.01000, 52.
1.04000, 48.
1.07000, 62.
1.10000, 48.
1.13000, 37.
1.16000, 40.
1.19000, 51.
1.22000, 81.
1.25000, 78.
1.28000, 63.
1.31000, 57.
1.34000, 46.
1.37000, 43.
1.40000, 92.
1.43000, 270.
1.46000, 598.
1.49000, 805.
1.52000, 632.
1.55000, 332.
1.58000, 141.
1.61000, 110.
1.64000, 305.
1.67000, 1324.
1.70000, 3523.
1.73000, 5899.
1.76000, 6134.
1.79000, 3643.
1.82000, 1589.
1.85000, 562.
1.88000, 222.
1.91000, 110.
1.94000, 60.
1.97000, 79.
2.00000, 96.
2.03000, 79.
2.06000, 64.
2.09000, 40.
2.12000, 28.
2.15000, 34.
2.18000, 28.
2.21000, 30.
2.24000, 40.
2.27000, 37.
2.30000, 45.
2.33000, 39.
2.36000, 41.
2.39000, 30.
2.42000, 34.
2.45000, 38.
2.48000, 47.
2.51000, 42.
2.54000, 37.
2.57000, 59.
2.60000, 112.
2.63000, 192.
2.66000, 325.
2.69000, 438.
2.72000, 374.
2.75000, 322.
2.78000, 254.
2.81000, 290.
2.84000, 308.
2.87000, 264.
2.90000, 205.
2.93000, 134.
2.96000, 79.
2.99000, 59.
3.02000, 51.
3.05000, 32.
3.08000, 40.
3.11000, 34.
3.14000, 39.
3.17000, 37.
3.20000, 82.
3.23000, 196.
3.26000, 415.
3.29000, 723.
3.32000, 837.
3.35000, 696.
3.38000, 397.
3.41000, 173.
3.44000, 71.
3.47000, 61.
3.50000, 68.
3.53000, 100.
3.56000, 158.
3.59000, 318.
3.62000, 532.
3.65000, 800.
3.68000, 1212.
3.71000, 1213.
3.74000, 775.
3.77000, 435.
3.80000, 185.
3.83000, 60.
3.86000, 25.
3.89000, 36.
3.92000, 70.
3.95000, 103.
3.98000, 156.
4.01000, 209.
4.04000, 191.
4.07000, 154.
4.10000, 73.
4.13000, 37.
4.16000, 38.
4.19000, 33.
4.22000, 32.
4.25000, 38.
4.28000, 36.
4.31000, 38.
4.34000, 36.
4.37000, 61.
4.40000, 126.
4.43000, 239.
4.46000, 427.
4.49000, 659.
4.52000, 689.
4.55000, 500.
4.58000, 359.
4.61000, 203.
4.64000, 138.
4.67000, 103.
4.70000, 81.
4.73000, 66.
4.76000, 61.
4.79000, 68.
4.82000, 96.
4.85000, 101.
4.88000, 114.
4.91000, 165.
4.94000, 175.
4.97000, 158.
5.00000, 110.
5.03000, 70.
5.06000, 59.
5.09000, 57.
5.12000, 52.
5.15000, 46.
5.18000, 58.
5.21000, 62.
5.24000, 54.
5.27000, 71.
5.30000, 77.
5.33000, 47.
5.36000, 70.
5.39000, 84.
5.42000, 86.
5.45000, 68.
5.48000, 68.
5.51000, 78.
5.54000, 59.
5.57000, 57.
5.60000, 56.
5.63000, 45.
5.66000, 61.
5.69000, 41.
5.72000, 57.
5.75000, 97.
5.78000, 109.
5.81000, 214.
5.84000, 290.
5.87000, 425.
5.90000, 459.
5.93000, 394.
5.96000, 291.
5.99000, 179.
6.02000, 124.
6.05000, 95.
6.08000, 87.
6.11000, 88.
6.14000, 101.
6.17000, 151.
6.20000, 223.
6.23000, 522.
6.26000, 1413.
6.29000, 3412.
6.32000, 6911.
6.35000, 11639.
6.38000, 15355.
6.41000, 15765.
6.44000, 12744.
6.47000, 8120.
6.50000, 4116.
6.53000, 1746.
6.56000, 602.
6.59000, 215.
6.62000, 161.
6.65000, 122.
6.68000, 95.
6.71000, 97.
6.74000, 94.
6.77000, 118.
6.80000, 117.
6.83000, 122.
6.86000, 183.
6.89000, 239.
6.92000, 480.
6.95000, 763.
6.98000, 1426.
7.01000, 2088.
7.04000, 2519.
7.07000, 2442.
7.10000, 1998.
7.13000, 1282.
7.16000, 724.
7.19000, 331.
7.22000, 138.
7.25000, 109.
7.28000, 81.
7.31000, 69.
7.34000, 74.
7.37000, 83.
7.40000, 84.
7.43000, 64.
7.46000, 91.
7.49000, 80.
7.52000, 81.
7.55000, 83.
7.58000, 74.
7.61000, 60.
7.64000, 85.
7.67000, 91.
7.70000, 83.
7.73000, 59.
7.76000, 82.
7.79000, 88.
7.82000, 85.
7.85000, 94.
7.88000, 109.
7.91000, 86.
7.94000, 121.
7.97000, 112.
8.00000, 116.
8.03000, 132.
8.06000, 134.
8.09000, 148.
8.12000, 136.
8.15000, 161.
8.18000, 131.
8.21000, 135.
8.24000, 116.
8.27000, 108.
8.30000, 113.
8.33000, 99.
8.36000, 89.
8.39000, 116.
8.42000, 107.
8.45000, 105.
8.48000, 118.
8.51000, 129.
8.54000, 123.
8.57000, 133.
8.60000, 151.
8.63000, 158.
8.66000, 163.
8.69000, 138.
8.72000, 135.
8.75000, 115.
8.78000, 119.
8.81000, 117.
8.84000, 128.
8.87000, 135.
8.90000, 104.
8.93000, 107.
8.96000, 120.
8.99000, 110.
9.02000, 120.
9.05000, 99.
9.08000, 108.
9.11000, 114.
9.14000, 128.
9.17000, 132.
9.20000, 115.
9.23000, 120.
9.26000, 119.
9.29000, 104.
9.32000, 122.
9.35000, 127.
9.38000, 119.
9.41000, 112.
9.44000, 110.
9.47000, 118.
9.50000, 117.
9.53000, 136.
9.56000, 121.
9.59000, 134.
9.62000, 125.
9.65000, 116.
9.68000, 122.
9.71000, 121.
9.74000, 122.
9.77000, 112.
9.80000, 122.
9.83000, 133.
9.86000, 117.
9.89000, 109.
9.92000, 120.
9.95000, 133.
9.98000, 109.
10.01000, 132.
10.04000, 121.
10.07000, 121.
10.10000, 135.
10.13000, 119.
10.16000, 110.
10.19000, 119.
10.22000, 101.
10.25000, 120.
10.28000, 134.
10.31000, 118.
10.34000, 120.
10.37000, 106.
10.40000, 133.
10.43000, 145.
10.46000, 150.
10.49000, 119.
10.52000, 146.
10.55000, 153.
10.58000, 138.
10.61000, 139.
10.64000, 147.
10.67000, 145.
10.70000, 133.
10.73000, 119.
10.76000, 114.
10.79000, 127.
10.82000, 118.
10.85000, 141.
10.88000, 133.
10.91000, 118.
10.94000, 138.
10.97000, 144.
11.00000, 139.
11.03000, 147.
11.06000, 127.
11.09000, 119.
11.12000, 144.
11.15000, 132.
11.18000, 121.
11.21000, 133.
11.24000, 133.
11.27000, 128.
11.30000, 145.
11.33000, 113.
11.36000, 125.
11.39000, 140.
11.42000, 139.
11.45000, 142.
11.48000, 132.
11.51000, 130.
11.54000, 139.
11.57000, 127.
11.60000, 143.
11.63000, 145.
11.66000, 132.
11.69000, 127.
11.72000, 139.
11.75000, 128.
11.78000, 141.
11.81000, 151.
11.84000, 134.
11.87000, 163.
11.90000, 159.
11.93000, 128.
11.96000, 134.
11.99000, 146.
12.02000, 143.
12.05000, 150.
12.08000, 136.
12.11000, 147.
12.14000, 119.
12.17000, 136.
12.20000, 144.
12.23000, 138.
12.26000, 125.
12.29000, 136.
12.32000, 155.
12.35000, 158.
12.38000, 142.
12.41000, 125.
12.44000, 126.
12.47000, 146.
12.50000, 159.
12.53000, 146.
12.56000, 139.
12.59000, 143.
12.62000, 164.
12.65000, 147.
12.68000, 154.
12.71000, 167.
12.74000, 172.
12.77000, 178.
12.80000, 187.
12.83000, 204.
12.86000, 187.
12.89000, 166.
12.92000, 169.
12.95000, 154.
12.98000, 153.
13.01000, 170.
13.04000, 154.
13.07000, 128.
13.10000, 139.
13.13000, 164.
13.16000, 139.
13.19000, 170.
13.22000, 167.
13.25000, 184.
13.28000, 156.
13.31000, 175.
13.34000, 170.
13.37000, 217.
13.40000, 203.
13.43000, 162.
13.46000, 174.
13.49000, 174.
13.52000, 152.
13.55000, 169.
13.58000, 138.
13.61000, 157.
13.64000, 144.
13.67000, 164.
13.70000, 153.
13.73000, 150.
13.76000, 153.
13.79000, 135.
13.82000, 149.
13.85000, 139.
13.88000, 145.
13.91000, 160.
13.94000, 175.
13.97000, 224.
14.00000, 271.
14.03000, 318.
14.06000, 344.
14.09000, 380.
14.12000, 428.
14.15000, 419.
14.18000, 391.
14.21000, 350.
14.24000, 291.
14.27000, 239.
14.30000, 192.
14.33000, 162.
14.36000, 156.
14.39000, 163.
14.42000, 166.
14.45000, 136.
14.48000, 157.
14.51000, 150.
14.54000, 152.
14.57000, 125.
14.60000, 134.
14.63000, 153.
14.66000, 145.
14.69000, 151.
14.72000, 144.
14.75000, 158.
14.78000, 169.
14.81000, 169.
14.84000, 151.
14.87000, 181.
14.90000, 195.
14.93000, 154.
14.96000, 195.
14.99000, 168.
15.02000, 164.
15.05000, 168.
15.08000, 175.
15.11000, 134.
15.14000, 151.
15.17000, 141.
15.20000, 153.
15.23000, 164.
15.26000, 154.
15.29000, 148.
15.32000, 144.
15.35000, 142.
15.38000, 136.
15.41000, 174.
15.44000, 165.
15.47000, 168.
15.50000, 187.
15.53000, 198.
15.56000, 227.
15.59000, 273.
15.62000, 335.
15.65000, 416.
15.68000, 471.
15.71000, 508.
15.74000, 526.
15.77000, 509.
15.80000, 422.
15.83000, 359.
15.86000, 346.
15.89000, 281.
15.92000, 206.
15.95000, 221.
15.98000, 175.
16.01000, 172.
16.04000, 148.
16.07000, 153.
16.10000, 147.
16.13000, 134.
16.16000, 158.
16.19000, 155.
16.22000, 142.
16.25000, 152.
16.28000, 146.
16.31000, 134.
16.34000, 148.
16.37000, 136.
16.40000, 139.
16.43000, 141.
16.46000, 142.
16.49000, 158.
16.52000, 152.
16.55000, 151.
16.58000, 160.
16.61000, 156.
16.64000, 187.
16.67000, 150.
16.70000, 165.
16.73000, 138.
16.76000, 156.
16.79000, 147.
16.82000, 130.
16.85000, 146.
16.88000, 132.
16.91000, 143.
16.94000, 147.
16.97000, 141.
17.00000, 142.
17.03000, 147.
17.06000, 127.
17.09000, 149.
17.12000, 141.
17.15000, 172.
17.18000, 161.
17.21000, 165.
17.24000, 140.
17.27000, 159.
17.30000, 139.
17.33000, 130.
17.36000, 146.
17.39000, 153.
17.42000, 173.
17.45000, 156.
17.48000, 193.
17.51000, 172.
17.54000, 210.
17.57000, 228.
17.60000, 215.
17.63000, 232.
17.66000, 217.
17.69000, 232.
17.72000, 250.
17.75000, 194.
17.78000, 211.
17.81000, 202.
17.84000, 210.
17.87000, 194.
17.90000, 224.
17.93000, 225.
17.96000, 262.
17.99000, 192.
18.02000, 229.
18.05000, 217.
18.08000, 259.
18.11000, 223.
18.14000, 237.
18.17000, 254.
18.20000, 270.
18.23000, 291.
18.26000, 303.
18.29000, 316.
18.32000, 341.
18.35000, 407.
18.38000, 427.
18.41000, 462.
18.44000, 470.
18.47000, 526.
18.50000, 578.
18.53000, 631.
18.56000, 679.
18.59000, 679.
18.62000, 723.
18.65000, 813.
18.68000, 862.
18.71000, 869.
18.74000, 841.
18.77000, 832.
18.80000, 890.
18.83000, 810.
18.86000, 883.
18.89000, 811.
18.92000, 794.
18.95000, 738.
18.98000, 740.
19.01000, 652.
19.04000, 627.
19.07000, 602.
19.10000, 520.
19.13000, 473.
19.16000, 461.
19.19000, 431.
19.22000, 380.
19.25000, 368.
19.28000, 351.
19.31000, 291.
19.34000, 304.
19.37000, 289.
19.40000, 265.
19.43000, 251.
19.46000, 239.
19.49000, 245.
19.52000, 195.
19.55000, 196.
19.58000, 206.
19.61000, 184.
19.64000, 186.
19.67000, 171.
19.70000, 204.
19.73000, 156.
19.76000, 165.
19.79000, 179.
19.82000, 155.
19.85000, 174.
19.88000, 188.
19.91000, 215.
19.94000, 268.
19.97000, 346.
20.00000, 381.
20.03000, 418.
20.06000, 493.
20.09000, 529.
20.12000, 525.
20.15000, 556.
20.18000, 514.
20.21000, 486.
20.24000, 436.
20.27000, 368.
20.30000, 272.
20.33000, 236.
20.36000, 211.
20.39000, 183.
20.42000, 173.
20.45000, 160.
20.48000, 144.
20.51000, 146.
20.54000, 155.
20.57000, 159.
20.60000, 152.
20.63000, 173.
20.66000, 191.
20.69000, 189.
20.72000, 230.
20.75000, 217.
20.78000, 228.
20.81000, 226.
20.84000, 239.
20.87000, 217.
20.90000, 240.
20.93000, 231.
20.96000, 222.
20.99000, 234.
21.02000, 231.
21.05000, 247.
21.08000, 226.
21.11000, 220.
21.14000, 216.
21.17000, 204.
21.20000, 197.
21.23000, 209.
21.26000, 200.
21.29000, 182.
21.32000, 193.
21.35000, 184.
21.38000, 171.
21.41000, 154.
21.44000, 160.
21.47000, 143.
21.50000, 125.
21.53000, 104.
21.56000, 110.
21.59000, 129.
21.62000, 123.
21.65000, 120.
21.68000, 117.
21.71000, 112.
21.74000, 105.
21.77000, 105.
21.80000, 103.
21.83000, 99.
21.86000, 101.
21.89000, 100.
21.92000, 116.
21.95000, 79.
21.98000, 94.
22.01000, 96.
22.04000, 109.
22.07000, 94.
22.10000, 104.
22.13000, 82.
22.16000, 97.
22.19000, 82.
22.22000, 84.
22.25000, 100.
22.28000, 90.
22.31000, 71.
22.34000, 75.
22.37000, 77.
22.40000, 93.
22.43000, 80.
22.46000, 88.
22.49000, 91.
22.52000, 99.
22.55000, 110.
22.58000, 121.
22.61000, 132.
22.64000, 144.
22.67000, 151.
22.70000, 134.
22.73000, 122.
22.76000, 109.
22.79000, 123.
22.82000, 90.
22.85000, 82.
22.88000, 77.
22.91000, 70.
22.94000, 80.
22.97000, 71.
23.00000, 62.
23.03000, 61.
23.06000, 82.
23.09000, 70.
23.12000, 83.
23.15000, 78.
23.18000, 73.
23.21000, 74.
23.24000, 76.
23.27000, 71.
23.30000, 79.
23.33000, 73.
23.36000, 58.
23.39000, 61.
23.42000, 77.
23.45000, 61.
23.48000, 71.
23.51000, 57.
23.54000, 55.
23.57000, 62.
23.60000, 51.
23.63000, 61.
23.66000, 57.
23.69000, 75.
23.72000, 88.
23.75000, 62.
23.78000, 49.
23.81000, 74.
23.84000, 66.
23.87000, 56.
23.90000, 65.
23.93000, 58.
23.96000, 73.
23.99000, 72.
24.02000, 57.
24.05000, 48.
24.08000, 62.
24.11000, 83.
24.14000, 79.
24.17000, 69.
24.20000, 70.
24.23000, 64.
24.26000, 56.
24.29000, 56.
24.32000, 56.
24.35000, 65.
24.38000, 60.
24.41000, 70.
24.44000, 63.
24.47000, 69.
24.50000, 69.
24.53000, 72.
24.56000, 70.
24.59000, 53.
24.62000, 62.
24.65000, 65.
24.68000, 64.
24.71000, 56.
24.74000, 63.
24.77000, 54.
24.80000, 63.
24.83000, 64.
24.86000, 76.
24.89000, 72.
24.92000, 63.
24.95000, 66.
24.98000, 63.
25.01000, 66.
25.04000, 67.
25.07000, 72.
25.10000, 67.
25.13000, 73.
25.16000, 91.
25.19000, 84.
25.22000, 69.
25.25000, 73.
25.28000, 69.
25.31000, 65.
25.34000, 71.
25.37000, 72.
25.40000, 57.
25.43000, 55.
25.46000, 57.
25.49000, 69.
25.52000, 63.
25.55000, 73.
25.58000, 66.
25.61000, 60.
25.64000, 46.
25.67000, 55.
25.70000, 56.
25.73000, 67.
25.76000, 56.
25.79000, 63.
25.82000, 63.
25.85000, 64.
25.88000, 62.
25.91000, 50.
25.94000, 49.
25.97000, 48.
26.00000, 43.
26.03000, 54.
26.06000, 64.
26.09000, 50.
26.12000, 46.
26.15000, 55.
26.18000, 45.
26.21000, 55.
26.24000, 48.
26.27000, 66.
26.30000, 52.
26.33000, 53.
26.36000, 53.
26.39000, 39.
26.42000, 59.
26.45000, 58.
26.48000, 52.
26.51000, 68.
26.54000, 52.
26.57000, 44.
26.60000, 52.
26.63000, 56.
26.66000, 57.
26.69000, 51.
26.72000, 54.
26.75000, 55.
26.78000, 55.
26.81000, 52.
26.84000, 53.
26.87000, 39.
26.90000, 53.
26.93000, 35.
26.96000, 55.
26.99000, 32.
27.02000, 51.
27.05000, 46.
27.08000, 56.
27.11000, 51.
27.14000, 49.
27.17000, 44.
27.20000, 50.
27.23000, 54.
27.26000, 50.
27.29000, 49.
27.32000, 63.
27.35000, 46.
27.38000, 42.
27.41000, 50.
27.44000, 52.
27.47000, 46.
27.50000, 59.
27.53000, 52.
27.56000, 54.
27.59000, 45.
27.62000, 47.
27.65000, 45.
27.68000, 46.
27.71000, 48.
27.74000, 29.
27.77000, 40.
27.80000, 50.
27.83000, 48.
27.86000, 45.
27.89000, 42.
27.92000, 44.
27.95000, 49.
27.98000, 52.
28.01000, 39.
28.04000, 42.
28.07000, 41.
28.10000, 48.
28.13000, 51.
28.16000, 50.
28.19000, 42.
28.22000, 47.
28.25000, 47.
28.28000, 48.
28.31000, 45.
28.34000, 37.
28.37000, 46.
28.40000, 35.
28.43000, 44.
28.46000, 28.
28.49000, 38.
28.52000, 31.
28.55000, 43.
28.58000, 43.
28.61000, 51.
28.64000, 36.
28.67000, 42.
28.70000, 45.
28.73000, 44.
28.76000, 36.
28.79000, 43.
28.82000, 32.
28.85000, 45.
28.88000, 41.
28.91000, 35.
28.94000, 38.
28.97000, 46.
29.00000, 49.
29.03000, 31.
29.06000, 39.
29.09000, 32.
29.12000, 32.
29.15000, 44.
29.18000, 51.
29.21000, 30.
29.24000, 45.
29.27000, 39.
29.30000, 32.
29.33000, 37.
29.36000, 43.
29.39000, 39.
29.42000, 39.
29.45000, 34.
29.48000, 25.
29.51000, 31.
29.54000, 36.
29.57000, 35.
29.60000, 53.
29.63000, 32.
29.66000, 34.
29.69000, 39.
29.72000, 37.
29.75000, 29.
29.78000, 29.
29.81000, 46.
29.84000, 32.
29.87000, 33.
29.90000, 33.
29.93000, 33.
29.96000, 35.
29.99000, 32.
30.02000, 24.
30.05000, 34.
30.08000, 40.
30.11000, 41.
30.14000, 31.
30.17000, 33.
30.20000, 40.
30.23000, 33.
30.26000, 24.
30.29000, 43.
30.32000, 25.
30.35000, 28.
30.38000, 32.
30.41000, 34.
30.44000, 38.
30.47000, 29.
30.50000, 20.
30.53000, 29.
30.56000, 32.
30.59000, 26.
30.62000, 41.
30.65000, 39.
30.68000, 27.
30.71000, 29.
30.74000, 26.
30.77000, 25.
30.80000, 35.
30.83000, 35.
30.86000, 32.
30.89000, 28.
30.92000, 25.
30.95000, 32.
30.98000, 31.
31.01000, 30.
31.04000, 31.
31.07000, 33.
31.10000, 26.
31.13000, 30.
31.16000, 26.
31.19000, 30.
31.22000, 33.
31.25000, 26.
31.28000, 36.
31.31000, 35.
31.34000, 37.
31.37000, 30.
31.40000, 25.
31.43000, 19.
31.46000, 38.
31.49000, 33.
31.52000, 25.
31.55000, 25.
31.58000, 27.
31.61000, 34.
31.64000, 39.
31.67000, 28.
31.70000, 26.
31.73000, 26.
31.76000, 38.
31.79000, 35.
31.82000, 27.
31.85000, 35.
31.88000, 36.
31.91000, 24.
31.94000, 24.
31.97000, 32.
32.00000, 29.
32.03000, 25.
32.06000, 28.
32.09000, 27.
32.12000, 28.
32.15000, 38.
32.18000, 42.
32.21000, 41.
32.24000, 24.
32.27000, 35.
32.30000, 23.
32.33000, 26.
32.36000, 29.
32.39000, 32.
32.42000, 32.
32.45000, 33.
32.48000, 23.
32.51000, 20.
32.54000, 25.
32.57000, 25.
32.60000, 24.
32.63000, 25.
32.66000, 18.
32.69000, 20.
32.72000, 24.
32.75000, 25.
32.78000, 21.
32.81000, 23.
32.84000, 22.
32.87000, 22.
32.90000, 26.
32.93000, 19.
32.96000, 23.
32.99000, 21.
33.02000, 21.
33.05000, 23.
33.08000, 27.
33.11000, 24.
33.14000, 16.
33.17000, 20.
33.20000, 26.
33.23000, 13.
33.26000, 23.
33.29000, 26.
33.32000, 17.
33.35000, 25.
33.38000, 22.
33.41000, 24.
33.44000, 25.
33.47000, 21.
33.50000, 16.
33.53000, 27.
33.56000, 15.
33.59000, 25.
33.62000, 24.
33.65000, 24.
33.68000, 19.
33.71000, 20.
33.74000, 24.
33.77000, 26.
33.80000, 18.
33.83000, 22.
33.86000, 25.
33.89000, 12.
33.92000, 14.
33.95000, 9.
33.98000, 24.
34.01000, 18.
34.04000, 23.
34.07000, 19.
34.10000, 20.
34.13000, 21.
34.16000, 29.
34.19000, 13.
34.22000, 22.
34.25000, 24.
34.28000, 18.
34.31000, 27.
34.34000, 17.
34.37000, 18.
34.40000, 24.
34.43000, 19.
34.46000, 18.
34.49000, 11.
34.52000, 15.
34.55000, 19.
34.58000, 18.
34.61000, 14.
34.64000, 16.
34.67000, 20.
34.70000, 17.
34.73000, 17.
34.76000, 21.
34.79000, 16.
34.82000, 17.
34.85000, 16.
34.88000, 14.
34.91000, 13.
34.94000, 12.
34.97000, 20.
35.00000, 10.
35.03000, 21.
35.06000, 14.
35.09000, 12.
35.12000, 11.
35.15000, 13.
35.18000, 14.
35.21000, 10.
35.24000, 11.
35.27000, 14.
35.30000, 11.
35.33000, 15.
35.36000, 9.
35.39000, 15.
35.42000, 16.
35.45000, 15.
35.48000, 14.
35.51000, 14.
35.54000, 16.
35.57000, 15.
35.60000, 16.
35.63000, 12.
35.66000, 16.
35.69000, 15.
35.72000, 16.
35.75000, 17.
35.78000, 13.
35.81000, 13.
35.84000, 10.
35.87000, 9.
35.90000, 9.
35.93000, 14.
35.96000, 21.
35.99000, 18.
36.02000, 13.
36.05000, 15.
36.08000, 11.
36.11000, 21.
36.14000, 12.
36.17000, 9.
36.20000, 20.
36.23000, 12.
36.26000, 16.
36.29000, 20.
36.32000, 14.
36.35000, 16.
36.38000, 21.
36.41000, 19.
36.44000, 13.
36.47000, 12.
36.50000, 15.
36.53000, 14.
36.56000, 12.
36.59000, 13.
36.62000, 7.
36.65000, 13.
36.68000, 3.
36.71000, 16.
36.74000, 12.
36.77000, 8.
36.80000, 16.
36.83000, 17.
36.86000, 8.
36.89000, 6.
36.92000, 10.
36.95000, 15.
36.98000, 12.
37.01000, 10.
37.04000, 6.
37.07000, 9.
37.10000, 11.
37.13000, 10.
37.16000, 10.
37.19000, 17.
37.22000, 10.
37.25000, 10.
37.28000, 10.
37.31000, 13.
37.34000, 6.
37.37000, 10.
37.40000, 6.
37.43000, 9.
37.46000, 6.
37.49000, 14.
37.52000, 9.
37.55000, 8.
37.58000, 9.
37.61000, 12.
37.64000, 6.
37.67000, 11.
37.70000, 11.
37.73000, 10.
37.76000, 8.
37.79000, 9.
37.82000, 16.
37.85000, 12.
37.88000, 6.
37.91000, 9.
37.94000, 6.
37.97000, 7.
38.00000, 6.
38.03000, 12.
38.06000, 10.
38.09000, 10.
38.12000, 10.
38.15000, 8.
38.18000, 5.
38.21000, 12.
38.24000, 12.
38.27000, 16.
38.30000, 10.
38.33000, 8.
38.36000, 7.
38.39000, 8.
38.42000, 12.
38.45000, 5.
38.48000, 8.
38.51000, 10.
38.54000, 11.
38.57000, 7.
38.60000, 13.
38.63000, 8.
38.66000, 7.
38.69000, 9.
38.72000, 4.
38.75000, 7.
38.78000, 2.
38.81000, 8.
38.84000, 8.
38.87000, 4.
38.90000, 8.
38.93000, 12.
38.96000, 8.
38.99000, 11.
39.02000, 12.
39.05000, 6.
39.08000, 5.
39.11000, 5.
39.14000, 7.
39.17000, 7.
39.20000, 3.
39.23000, 10.
39.26000, 5.
39.29000, 11.
39.32000, 5.
39.35000, 2.
39.38000, 11.
39.41000, 9.
39.44000, 1.
39.47000, 7.
39.50000, 12.
39.53000, 7.
39.56000, 6.
39.59000, 9.
39.62000, 4.
39.65000, 6.
39.68000, 8.
39.71000, 4.
39.74000, 8.
39.77000, 6.
39.80000, 4.
39.83000, 4.
39.86000, 4.
39.89000, 4.
39.92000, 5.
39.95000, 10.
39.98000, 7.
40.01000, 3.
40.04000, 6.
40.07000, 5.
40.10000, 2.
40.13000, 5.
40.16000, 7.
40.19000, 10.
40.22000, 7.
40.25000, 6.
40.28000, 6.
40.31000, 2.
40.34000, 5.
40.37000, 4.
40.40000, 5.
40.43000, 4.
40.46000, 1.
40.49000, 6.
40.52000, 5.
40.55000, 0.
#ENDOFDATA   :