File: sample_data/data/Spectrum value from standard/Till 1/Spectrum 6.txt
#FORMAT      : EMSA/MAS Spectral Data File
#VERSION     : 1.0
#TITLE       : Spectrum 6
#DATE        : 21-AUG-2025
#TIME        : 15:10
#OWNER       : XGT7200
#NPOINTS     : 4096.
#NCOLUMNS    : 1.
#XUNITS      : keV
#YUNITS      : counts
#DATATYPE    : XY
#XPERCHAN    : 0.0100000
#OFFSET      : -0.400000
#SIGNALTYPE  : EDS
#CHOFFSET    : 40.0000
#LIVETIME    : 30
#REALTIME    : 39.6227
#BEAMKV      : 50.0000
#PROBECUR    : 707000.
#MAGCAM      : 100.000
#XTILTSTGE   : 0.0
#AZIMANGLE   : 0.0
#ELEVANGLE   : 45.0
#XPOSITION mm: 0.0000
#YPOSITION mm: 0.0000
#ZPOSITION mm: 0.0000
##OXINSTPT   : 4
##OXINSTSTROB: 71.98
#SPECTRUM    : Spectral Data Starts Here
-0.40000, 0.
-0.37000, 0.
-0.34000, 0.
-0.31000, 0.
-0.28000, 0.
-0.25000, 0.
-0.22000, 0.
-0.19000, 0.
-0.16000, 0.
-0.13000, 0.
-0.10000, 0.
-0.07000, 0.
-0.04000, 0.
-0.01000, 0.
0.02000, 0.
0.05000, 0.
0.08000, 0.
0.11000, 0.
0.14000, 0.
0.17000, 0.
0.20000, 0.
0.23000, 0.
0.26000, 0.
0.29000, 0.
0.32000, 0.
0.35000, 1.
0.38000, 10.
0.41000, 34.
0.44000, 43.
0.47000, 55.
0.50000, 44.
0.53000, 41.
0.56000, 39.
0.59000, 39.
0.62000, 42.
0.65000, 42.
0.68000, 33.
0.71000, 35.
0.74000, 34.
0.77000, 37.
0.80000, 35.
0.83000, 29.
0.86000, 44.
0.89000, 45.
0.92000, 36.
0.95000, 46.
0.98000, 59.
1.01000, 44.
1.04000, 47.
1.07000, 44.
1.10000, 41.
1.13000, 38.
1.16000, 43.
1.19000, 39.
1.22000, 64.
1.25000, 74.
1.28000, 86.
1.31000, 49.
1.34000, 37.
1.37000, 51.
1.40000, 82.
1.43000, 257.
1.46000, 549.
1.49000, 752.
1.52000, 650.
1.55000, 360.
1.58000, 170.
1.61000, 122.
1.64000, 290.
1.67000, 1265.
1.70000, 3234.
1.73000, 5455.
1.76000, 5611.
1.79000, 3633.
1.82000, 1478.
1.85000, 531.
1.88000, 210.
1.91000, 97.
1.94000, 71.
1.97000, 69.
2.00000, 104.
2.03000, 83.
2.06000, 61.
2.09000, 42.
2.12000, 28.
2.15000, 38.
2.18000, 28.
2.21000, 38.
2.24000, 28.
2.27000, 49.
2.30000, 54.
2.33000, 49.
2.36000, 44.
2.39000, 27.
2.42000, 31.
2.45000, 32.
2.48000, 26.
2.51000, 37.
2.54000, 35.
2.57000, 60.
2.60000, 102.
2.63000, 183.
2.66000, 310.
2.69000, 418.
2.72000, 443.
2.75000, 324.
2.78000, 215.
2.81000, 208.
2.84000, 233.
2.87000, 196.
2.90000, 138.
2.93000, 98.
2.96000, 74.
2.99000, 93.
3.02000, 56.
3.05000, 42.
3.08000, 37.
3.11000, 32.
3.14000, 32.
3.17000, 45.
3.20000, 80.
3.23000, 188.
3.26000, 356.
3.29000, 636.
3.32000, 779.
3.35000, 633.
3.38000, 355.
3.41000, 168.
3.44000, 74.
3.47000, 48.
3.50000, 51.
3.53000, 85.
3.56000, 163.
3.59000, 295.
3.62000, 512.
3.65000, 885.
3.68000, 1256.
3.71000, 1200.
3.74000, 816.
3.77000, 485.
3.80000, 150.
3.83000, 54.
3.86000, 31.
3.89000, 39.
3.92000, 62.
3.95000, 117.
3.98000, 172.
4.01000, 218.
4.04000, 202.
4.07000, 138.
4.10000, 75.
4.13000, 56.
4.16000, 26.
4.19000, 29.
4.22000, 29.
4.25000, 28.
4.28000, 33.
4.31000, 30.
4.34000, 40.
4.37000, 69.
4.40000, 152.
4.43000, 296.
4.46000, 528.
4.49000, 740.
4.52000, 793.
4.55000, 600.
4.58000, 434.
4.61000, 252.
4.64000, 143.
4.67000, 107.
4.70000, 80.
4.73000, 87.
4.76000, 87.
4.79000, 84.
4.82000, 77.
4.85000, 110.
4.88000, 133.
4.91000, 157.
4.94000, 167.
4.97000, 161.
5.00000, 116.
5.03000, 60.
5.06000, 48.
5.09000, 66.
5.12000, 62.
5.15000, 41.
5.18000, 58.
5.21000, 50.
5.24000, 68.
5.27000, 44.
5.30000, 51.
5.33000, 57.
5.36000, 71.
5.39000, 79.
5.42000, 75.
5.45000, 72.
5.48000, 73.
5.51000, 55.
5.54000, 60.
5.57000, 57.
5.60000, 75.
5.63000, 51.
5.66000, 63.
5.69000, 69.
5.72000, 72.
5.75000, 85.
5.78000, 124.
5.81000, 187.
5.84000, 322.
5.87000, 473.
5.90000, 450.
5.93000, 395.
5.96000, 276.
5.99000, 179.
6.02000, 116.
6.05000, 102.
6.08000, 95.
6.11000, 86.
6.14000, 105.
6.17000, 119.
6.20000, 213.
6.23000, 559.
6.26000, 1375.
6.29000, 3488.
6.32000, 7240.
6.35000, 11812.
6.38000, 15808.
6.41000, 16139.
6.44000, 13111.
6.47000, 8313.
6.50000, 4341.
6.53000, 1760.
6.56000, 604.
6.59000, 251.
6.62000, 130.
6.65000, 110.
6.68000, 97.
6.71000, 114.
6.74000, 108.
6.77000, 88.
6.80000, 130.
6.83000, 127.
6.86000, 174.
6.89000, 262.
6.92000, 463.
6.95000, 838.
6.98000, 1424.
7.01000, 2131.
7.04000, 2507.
7.07000, 2601.
7.10000, 2034.
7.13000, 1369.
7.16000, 672.
7.19000, 347.
7.22000, 147.
7.25000, 106.
7.28000, 89.
7.31000, 60.
7.34000, 73.
7.37000, 69.
7.40000, 91.
7.43000, 67.
7.46000, 92.
7.49000, 84.
7.52000, 68.
7.55000, 58.
7.58000, 69.
7.61000, 87.
7.64000, 79.
7.67000, 72.
7.70000, 76.
7.73000, 72.
7.76000, 88.
7.79000, 95.
7.82000, 86.
7.85000, 84.
7.88000, 90.
7.91000, 102.
7.94000, 116.
7.97000, 127.
8.00000, 136.
8.03000, 153.
8.06000, 150.
8.09000, 144.
8.12000, 129.
8.15000, 120.
8.18000, 136.
8.21000, 101.
8.24000, 117.
8.27000, 97.
8.30000, 95.
8.33000, 113.
8.36000, 109.
8.39000, 103.
8.42000, 117.
8.45000, 102.
8.48000, 108.
8.51000, 112.
8.54000, 111.
8.57000, 144.
8.60000, 143.
8.63000, 185.
8.66000, 151.
8.69000, 140.
8.72000, 119.
8.75000, 112.
8.78000, 136.
8.81000, 117.
8.84000, 123.
8.87000, 106.
8.90000, 110.
8.93000, 113.
8.96000, 100.
8.99000, 112.
9.02000, 114.
9.05000, 117.
9.08000, 133.
9.11000, 111.
9.14000, 132.
9.17000, 109.
9.20000, 146.
9.23000, 133.
9.26000, 127.
9.29000, 109.
9.32000, 137.
9.35000, 119.
9.38000, 102.
9.41000, 118.
9.44000, 118.
9.47000, 123.
9.50000, 140.
9.53000, 125.
9.56000, 122.
9.59000, 97.
9.62000, 127.
9.65000, 123.
9.68000, 140.
9.71000, 130.
9.74000, 120.
9.77000, 102.
9.80000, 117.
9.83000, 99.
9.86000, 116.
9.89000, 129.
9.92000, 138.
9.95000, 139.
9.98000, 115.
10.01000, 123.
10.04000, 118.
10.07000, 129.
10.10000, 109.
10.13000, 115.
10.16000, 124.
10.19000, 117.
10.22000, 140.
10.25000, 113.
10.28000, 127.
10.31000, 119.
10.34000, 133.
10.37000, 112.
10.40000, 104.
10.43000, 134.
10.46000, 144.
10.49000, 137.
10.52000, 146.
10.55000, 157.
10.58000, 121.
10.61000, 127.
10.64000, 111.
10.67000, 137.
10.70000, 127.
10.73000, 149.
10.76000, 118.
10.79000, 126.
10.82000, 156.
10.85000, 141.
10.88000, 131.
10.91000, 115.
10.94000, 147.
10.97000, 124.
11.00000, 141.
11.03000, 147.
11.06000, 133.
11.09000, 123.
11.12000, 118.
11.15000, 138.
11.18000, 132.
11.21000, 144.
11.24000, 148.
11.27000, 142.
11.30000, 114.
11.33000, 118.
11.36000, 139.
11.39000, 139.
11.42000, 136.
11.45000, 142.
11.48000, 139.
11.51000, 138.
11.54000, 139.
11.57000, 139.
11.60000, 154.
11.63000, 133.
11.66000, 141.
11.69000, 120.
11.72000, 140.
11.75000, 148.
11.78000, 138.
11.81000, 131.
11.84000, 141.
11.87000, 138.
11.90000, 128.
11.93000, 133.
11.96000, 143.
11.99000, 167.
12.02000, 136.
12.05000, 138.
12.08000, 140.
12.11000, 126.
12.14000, 130.
12.17000, 153.
12.20000, 148.
12.23000, 126.
12.26000, 147.
12.29000, 148.
12.32000, 137.
12.35000, 136.
12.38000, 142.
12.41000, 146.
12.44000, 155.
12.47000, 162.
12.50000, 153.
12.53000, 155.
12.56000, 153.
12.59000, 146.
12.62000, 147.
12.65000, 160.
12.68000, 161.
12.71000, 157.
12.74000, 184.
12.77000, 178.
12.80000, 182.
12.83000, 176.
12.86000, 188.
12.89000, 156.
12.92000, 178.
12.95000, 136.
12.98000, 128.
13.01000, 152.
13.04000, 154.
13.07000, 162.
13.10000, 166.
13.13000, 158.
13.16000, 137.
13.19000, 159.
13.22000, 156.
13.25000, 181.
13.28000, 164.
13.31000, 216.
13.34000, 183.
13.37000, 199.
13.40000, 222.
13.43000, 186.
13.46000, 163.
13.49000, 160.
13.52000, 159.
13.55000, 138.
13.58000, 149.
13.61000, 136.
13.64000, 156.
13.67000, 144.
13.70000, 180.
13.73000, 145.
13.76000, 147.
13.79000, 165.
13.82000, 133.
13.85000, 149.
13.88000, 176.
13.91000, 155.
13.94000, 182.
13.97000, 218.
14.00000, 254.
14.03000, 283.
14.06000, 380.
14.09000, 422.
14.12000, 461.
14.15000, 427.
14.18000, 412.
14.21000, 333.
14.24000, 243.
14.27000, 209.
14.30000, 173.
14.33000, 165.
14.36000, 149.
14.39000, 145.
14.42000, 134.
14.45000, 146.
14.48000, 142.
14.51000, 149.
14.54000, 145.
14.57000, 120.
14.60000, 175.
14.63000, 127.
14.66000, 144.
14.69000, 124.
14.72000, 147.
14.75000, 158.
14.78000, 161.
14.81000, 161.
14.84000, 188.
14.87000, 183.
14.90000, 195.
14.93000, 184.
14.96000, 190.
14.99000, 165.
15.02000, 166.
15.05000, 153.
15.08000, 146.
15.11000, 124.
15.14000, 150.
15.17000, 145.
15.20000, 160.
15.23000, 141.
15.26000, 138.
15.29000, 149.
15.32000, 129.
15.35000, 163.
15.38000, 152.
15.41000, 165.
15.44000, 153.
15.47000, 181.
15.50000, 190.
15.53000, 184.
15.56000, 222.
15.59000, 333.
15.62000, 352.
15.65000, 447.
15.68000, 498.
15.71000, 567.
15.74000, 525.
15.77000, 483.
15.80000, 474.
15.83000, 385.
15.86000, 330.
15.89000, 289.
15.92000, 213.
15.95000, 176.
15.98000, 168.
16.01000, 163.
16.04000, 144.
16.07000, 150.
16.10000, 149.
16.13000, 128.
16.16000, 136.
16.19000, 141.
16.22000, 152.
16.25000, 147.
16.28000, 144.
16.31000, 152.
16.34000, 130.
16.37000, 143.
16.40000, 144.
16.43000, 148.
16.46000, 151.
16.49000, 131.
16.52000, 160.
16.55000, 147.
16.58000, 141.
16.61000, 132.
16.64000, 155.
16.67000, 169.
16.70000, 176.
16.73000, 149.
16.76000, 148.
16.79000, 144.
16.82000, 147.
16.85000, 139.
16.88000, 149.
16.91000, 141.
16.94000, 149.
16.97000, 157.
17.00000, 149.
17.03000, 153.
17.06000, 131.
17.09000, 155.
17.12000, 133.
17.15000, 175.
17.18000, 151.
17.21000, 137.
17.24000, 156.
17.27000, 177.
17.30000, 141.
17.33000, 161.
17.36000, 164.
17.39000, 151.
17.42000, 168.
17.45000, 156.
17.48000, 181.
17.51000, 188.
17.54000, 194.
17.57000, 202.
17.60000, 215.
17.63000, 218.
17.66000, 216.
17.69000, 229.
17.72000, 195.
17.75000, 201.
17.78000, 204.
17.81000, 193.
17.84000, 214.
17.87000, 182.
17.90000, 223.
17.93000, 242.
17.96000, 188.
17.99000, 242.
18.02000, 228.
18.05000, 201.
18.08000, 238.
18.11000, 253.
18.14000, 251.
18.17000, 290.
18.20000, 262.
18.23000, 271.
18.26000, 276.
18.29000, 322.
18.32000, 332.
18.35000, 354.
18.38000, 401.
18.41000, 428.
18.44000, 430.
18.47000, 538.
18.50000, 559.
18.53000, 604.
18.56000, 676.
18.59000, 735.
18.62000, 744.
18.65000, 757.
18.68000, 824.
18.71000, 784.
18.74000, 892.
18.77000, 866.
18.80000, 878.
18.83000, 859.
18.86000, 815.
18.89000, 769.
18.92000, 787.
18.95000, 722.
18.98000, 725.
19.01000, 660.
19.04000, 594.
19.07000, 604.
19.10000, 520.
19.13000, 481.
19.16000, 447.
19.19000, 401.
19.22000, 395.
19.25000, 371.
19.28000, 329.
19.31000, 300.
19.34000, 281.
19.37000, 266.
19.40000, 248.
19.43000, 230.
19.46000, 234.
19.49000, 218.
19.52000, 229.
19.55000, 198.
19.58000, 203.
19.61000, 185.
19.64000, 200.
19.67000, 187.
19.70000, 179.
19.73000, 166.
19.76000, 150.
19.79000, 181.
19.82000, 197.
19.85000, 158.
19.88000, 214.
19.91000, 213.
19.94000, 256.
19.97000, 312.
20.00000, 367.
20.03000, 442.
20.06000, 492.
20.09000, 487.
20.12000, 509.
20.15000, 508.
20.18000, 556.
20.21000, 486.
20.24000, 436.
20.27000, 377.
20.30000, 317.
20.33000, 248.
20.36000, 213.
20.39000, 155.
20.42000, 183.
20.45000, 161.
20.48000, 140.
20.51000, 138.
20.54000, 167.
20.57000, 161.
20.60000, 193.
20.63000, 162.
20.66000, 194.
20.69000, 197.
20.72000, 195.
20.75000, 189.
20.78000, 197.
20.81000, 207.
20.84000, 212.
20.87000, 234.
20.90000, 219.
20.93000, 243.
20.96000, 236.
20.99000, 246.
21.02000, 242.
21.05000, 212.
21.08000, 226.
21.11000, 237.
21.14000, 215.
21.17000, 220.
21.20000, 238.
21.23000, 198.
21.26000, 185.
21.29000, 168.
21.32000, 199.
21.35000, 172.
21.38000, 175.
21.41000, 169.
21.44000, 148.
21.47000, 176.
21.50000, 150.
21.53000, 137.
21.56000, 116.
21.59000, 113.
21.62000, 111.
21.65000, 116.
21.68000, 110.
21.71000, 111.
21.74000, 128.
21.77000, 109.
21.80000, 109.
21.83000, 114.
21.86000, 116.
21.89000, 90.
21.92000, 84.
21.95000, 105.
21.98000, 94.
22.01000, 86.
22.04000, 97.
22.07000, 94.
22.10000, 106.
22.13000, 112.
22.16000, 89.
22.19000, 76.
22.22000, 80.
22.25000, 98.
22.28000, 87.
22.31000, 63.
22.34000, 103.
22.37000, 78.
22.40000, 85.
22.43000, 80.
22.46000, 61.
22.49000, 77.
22.52000, 75.
22.55000, 108.
22.58000, 123.
22.61000, 136.
22.64000, 132.
22.67000, 165.
22.70000, 132.
22.73000, 130.
22.76000, 144.
22.79000, 107.
22.82000, 96.
22.85000, 83.
22.88000, 73.
22.91000, 70.
22.94000, 63.
22.97000, 83.
23.00000, 89.
23.03000, 89.
23.06000, 55.
23.09000, 56.
23.12000, 83.
23.15000, 76.
23.18000, 77.
23.21000, 81.
23.24000, 68.
23.27000, 72.
23.30000, 59.
23.33000, 72.
23.36000, 68.
23.39000, 66.
23.42000, 55.
23.45000, 67.
23.48000, 82.
23.51000, 55.
23.54000, 63.
23.57000, 61.
23.60000, 67.
23.63000, 49.
23.66000, 74.
23.69000, 70.
23.72000, 86.
23.75000, 67.
23.78000, 63.
23.81000, 69.
23.84000, 56.
23.87000, 69.
23.90000, 64.
23.93000, 66.
23.96000, 47.
23.99000, 52.
24.02000, 60.
24.05000, 57.
24.08000, 56.
24.11000, 48.
24.14000, 63.
24.17000, 66.
24.20000, 61.
24.23000, 63.
24.26000, 67.
24.29000, 57.
24.32000, 65.
24.35000, 50.
24.38000, 65.
24.41000, 75.
24.44000, 56.
24.47000, 60.
24.50000, 60.
24.53000, 53.
24.56000, 47.
24.59000, 62.
24.62000, 74.
24.65000, 61.
24.68000, 59.
24.71000, 59.
24.74000, 62.
24.77000, 67.
24.80000, 50.
24.83000, 73.
24.86000, 65.
24.89000, 70.
24.92000, 61.
24.95000, 71.
24.98000, 51.
25.01000, 67.
25.04000, 75.
25.07000, 79.
25.10000, 64.
25.13000, 84.
25.16000, 69.
25.19000, 67.
25.22000, 76.
25.25000, 73.
25.28000, 62.
25.31000, 83.
25.34000, 77.
25.37000, 53.
25.40000, 57.
25.43000, 59.
25.46000, 56.
25.49000, 66.
25.52000, 66.
25.55000, 64.
25.58000, 69.
25.61000, 39.
25.64000, 39.
25.67000, 69.
25.70000, 48.
25.73000, 57.
25.76000, 56.
25.79000, 61.
25.82000, 52.
25.85000, 66.
25.88000, 52.
25.91000, 44.
25.94000, 55.
25.97000, 53.
26.00000, 52.
26.03000, 48.
26.06000, 62.
26.09000, 66.
26.12000, 64.
26.15000, 61.
26.18000, 52.
26.21000, 64.
26.24000, 50.
26.27000, 67.
26.30000, 54.
26.33000, 54.
26.36000, 51.
26.39000, 45.
26.42000, 51.
26.45000, 53.
26.48000, 40.
26.51000, 53.
26.54000, 54.
26.57000, 39.
26.60000, 55.
26.63000, 49.
26.66000, 50.
26.69000, 57.
26.72000, 38.
26.75000, 37.
26.78000, 48.
26.81000, 45.
26.84000, 46.
26.87000, 47.
26.90000, 47.
26.93000, 48.
26.96000, 49.
26.99000, 52.
27.02000, 45.
27.05000, 44.
27.08000, 50.
27.11000, 49.
27.14000, 53.
27.17000, 53.
27.20000, 44.
27.23000, 46.
27.26000, 45.
27.29000, 48.
27.32000, 56.
27.35000, 34.
27.38000, 49.
27.41000, 49.
27.44000, 33.
27.47000, 62.
27.50000, 48.
27.53000, 52.
27.56000, 53.
27.59000, 47.
27.62000, 37.
27.65000, 47.
27.68000, 49.
27.71000, 37.
27.74000, 41.
27.77000, 51.
27.80000, 45.
27.83000, 46.
27.86000, 46.
27.89000, 33.
27.92000, 46.
27.95000, 34.
27.98000, 51.
28.01000, 37.
28.04000, 49.
28.07000, 45.
28.10000, 50.
28.13000, 42.
28.16000, 41.
28.19000, 54.
28.22000, 42.
28.25000, 36.
28.28000, 45.
28.31000, 50.
28.34000, 37.
28.37000, 52.
28.40000, 46.
28.43000, 47.
28.46000, 44.
28.49000, 57.
28.52000, 52.
28.55000, 41.
28.58000, 39.
28.61000, 46.
28.64000, 45.
28.67000, 36.
28.70000, 41.
28.73000, 30.
28.76000, 38.
28.79000, 42.
28.82000, 33.
28.85000, 55.
28.88000, 45.
28.91000, 34.
28.94000, 51.
28.97000, 42.
29.00000, 46.
29.03000, 26.
29.06000, 49.
29.09000, 28.
29.12000, 36.
29.15000, 33.
29.18000, 40.
29.21000, 35.
29.24000, 36.
29.27000, 44.
29.30000, 35.
29.33000, 40.
29.36000, 37.
29.39000, 46.
29.42000, 33.
29.45000, 33.
29.48000, 28.
29.51000, 32.
29.54000, 38.
29.57000, 35.
29.60000, 39.
29.63000, 36.
29.66000, 37.
29.69000, 35.
29.72000, 32.
29.75000, 28.
29.78000, 44.
29.81000, 25.
29.84000, 32.
29.87000, 28.
29.90000, 33.
29.93000, 32.
29.96000, 42.
29.99000, 24.
30.02000, 39.
30.05000, 32.
30.08000, 34.
30.11000, 30.
30.14000, 30.
30.17000, 32.
30.20000, 34.
30.23000, 40.
30.26000, 46.
30.29000, 24.
30.32000, 26.
30.35000, 31.
30.38000, 33.
30.41000, 39.
30.44000, 41.
30.47000, 28.
30.50000, 22.
30.53000, 34.
30.56000, 30.
30.59000, 26.
30.62000, 35.
30.65000, 25.
30.68000, 23.
30.71000, 33.
30.74000, 26.
30.77000, 29.
30.80000, 33.
30.83000, 32.
30.86000, 27.
30.89000, 24.
30.92000, 25.
30.95000, 27.
30.98000, 38.
31.01000, 36.
31.04000, 23.
31.07000, 28.
31.10000, 39.
31.13000, 38.
31.16000, 32.
31.19000, 20.
31.22000, 29.
31.25000, 23.
31.28000, 31.
31.31000, 24.
31.34000, 32.
31.37000, 27.
31.40000, 28.
31.43000, 27.
31.46000, 32.
31.49000, 28.
31.52000, 30.
31.55000, 28.
31.58000, 25.
31.61000, 26.
31.64000, 36.
31.67000, 26.
31.70000, 43.
31.73000, 33.
31.76000, 28.
31.79000, 31.
31.82000, 41.
31.85000, 32.
31.88000, 29.
31.91000, 34.
31.94000, 37.
31.97000, 35.
32.00000, 38.
32.03000, 23.
32.06000, 43.
32.09000, 26.
32.12000, 43.
32.15000, 47.
32.18000, 29.
32.21000, 21.
32.24000, 23.
32.27000, 25.
32.30000, 37.
32.33000, 21.
32.36000, 24.
32.39000, 20.
32.42000, 18.
32.45000, 23.
32.48000, 19.
32.51000, 27.
32.54000, 24.
32.57000, 25.
32.60000, 25.
32.63000, 24.
32.66000, 20.
32.69000, 34.
32.72000, 17.
32.75000, 29.
32.78000, 26.
32.81000, 13.
32.84000, 23.
32.87000, 21.
32.90000, 27.
32.93000, 25.
32.96000, 14.
32.99000, 30.
33.02000, 29.
33.05000, 25.
33.08000, 29.
33.11000, 29.
33.14000, 24.
33.17000, 16.
33.20000, 26.
33.23000, 23.
33.26000, 19.
33.29000, 26.
33.32000, 23.
33.35000, 23.
33.38000, 20.
33.41000, 19.
33.44000, 23.
33.47000, 18.
33.50000, 28.
33.53000, 31.
33.56000, 21.
33.59000, 22.
33.62000, 17.
33.65000, 27.
33.68000, 25.
33.71000, 27.
33.74000, 26.
33.77000, 21.
33.80000, 27.
33.83000, 20.
33.86000, 25.
33.89000, 18.
33.92000, 21.
33.95000, 22.
33.98000, 19.
34.01000, 22.
34.04000, 20.
34.07000, 18.
34.10000, 24.
34.13000, 32.
34.16000, 17.
34.19000, 21.
34.22000, 18.
34.25000, 23.
34.28000, 22.
34.31000, 16.
34.34000, 20.
34.37000, 23.
34.40000, 21.
34.43000, 16.
34.46000, 22.
34.49000, 19.
34.52000, 11.
34.55000, 27.
34.58000, 17.
34.61000, 9.
34.64000, 23.
34.67000, 14.
34.70000, 29.
34.73000, 26.
34.76000, 19.
34.79000, 15.
34.82000, 22.
34.85000, 18.
34.88000, 18.
34.91000, 16.
34.94000, 21.
34.97000, 15.
35.00000, 14.
35.03000, 8.
35.06000, 18.
35.09000, 16.
35.12000, 13.
35.15000, 15.
35.18000, 13.
35.21000, 12.
35.24000, 11.
35.27000, 16.
35.30000, 10.
35.33000, 9.
35.36000, 13.
35.39000, 18.
35.42000, 11.
35.45000, 18.
35.48000, 15.
35.51000, 16.
35.54000, 18.
35.57000, 12.
35.60000, 10.
35.63000, 19.
35.66000, 14.
35.69000, 15.
35.72000, 15.
35.75000, 19.
35.78000, 18.
35.81000, 8.
35.84000, 18.
35.87000, 16.
35.90000, 11.
35.93000, 16.
35.96000, 14.
35.99000, 9.
36.02000, 14.
36.05000, 14.
36.08000, 14.
36.11000, 23.
36.14000, 22.
36.17000, 17.
36.20000, 14.
36.23000, 15.
36.26000, 13.
36.29000, 9.
36.32000, 15.
36.35000, 18.
36.38000, 16.
36.41000, 21.
36.44000, 13.
36.47000, 16.
36.50000, 15.
36.53000, 12.
36.56000, 6.
36.59000, 6.
36.62000, 11.
36.65000, 10.
36.68000, 22.
36.71000, 12.
36.74000, 11.
36.77000, 10.
36.80000, 8.
36.83000, 11.
36.86000, 8.
36.89000, 14.
36.92000, 13.
36.95000, 9.
36.98000, 10.
37.01000, 5.
37.04000, 9.
37.07000, 10.
37.10000, 11.
37.13000, 13.
37.16000, 8.
37.19000, 8.
37.22000, 9.
37.25000, 8.
37.28000, 9.
37.31000, 12.
37.34000, 13.
37.37000, 11.
37.40000, 11.
37.43000, 16.
37.46000, 6.
37.49000, 12.
37.52000, 10.
37.55000, 13.
37.58000, 14.
37.61000, 8.
37.64000, 13.
37.67000, 16.
37.70000, 7.
37.73000, 5.
37.76000, 8.
37.79000, 12.
37.82000, 8.
37.85000, 9.
37.88000, 8.
37.91000, 8.
37.94000, 8.
37.97000, 12.
38.00000, 8.
38.03000, 7.
38.06000, 6.
38.09000, 5.
38.12000, 16.
38.15000, 11.
38.18000, 10.
38.21000, 10.
38.24000, 6.
38.27000, 9.
38.30000, 6.
38.33000, 5.
38.36000, 6.
38.39000, 14.
38.42000, 8.
38.45000, 8.
38.48000, 7.
38.51000, 7.
38.54000, 8.
38.57000, 10.
38.60000, 7.
38.63000, 11.
38.66000, 7.
38.69000, 3.
38.72000, 9.
38.75000, 7.
38.78000, 11.
38.81000, 5.
38.84000, 10.
38.87000, 2.
38.90000, 12.
38.93000, 11.
38.96000, 5.
38.99000, 6.
39.02000, 9.
39.05000, 6.
39.08000, 13.
39.11000, 8.
39.14000, 5.
39.17000, 12.
39.20000, 11.
39.23000, 10.
39.26000, 5.
39.29000, 8.
39.32000, 8.
39.35000, 6.
39.38000, 6.
39.41000, 8.
39.44000, 8.
39.47000, 4.
39.50000, 4.
39.53000, 9.
39.56000, 4.
39.59000, 2.
39.62000, 12.
39.65000, 2.
39.68000, 5.
39.71000, 6.
39.74000, 8.
39.77000, 5.
39.80000, 7.
39.83000, 3.
39.86000, 7.
39.89000, 3.
39.92000, 8.
39.95000, 5.
39.98000, 4.
40.01000, 6.
40.04000, 4.
40.07000, 5.
40.10000, 14.
40.13000, 14.
40.16000, 9.
40.19000, 5.
40.22000, 10.
40.25000, 4.
40.28000, 8.
40.31000, 3.
40.34000, 4.
40.37000, 6.
40.40000, 2.
40.43000, 6.
40.46000, 7.
40.49000, 4.
40.52000, 1.
40.55000, 0.
#ENDOFDATA   :