File: sample_data/data/Spectrum value from standard/Till 1/Spectrum 4.txt
#FORMAT      : EMSA/MAS Spectral Data File
#VERSION     : 1.0
#TITLE       : Spectrum 4
#DATE        : 21-AUG-2025
#TIME        : 15:08
#OWNER       : XGT7200
#NPOINTS     : 4096.
#NCOLUMNS    : 1.
#XUNITS      : keV
#YUNITS      : counts
#DATATYPE    : XY
#XPERCHAN    : 0.0100000
#OFFSET      : -0.400000
#SIGNALTYPE  : EDS
#CHOFFSET    : 40.0000
#LIVETIME    : 30
#REALTIME    : 39.5541
#BEAMKV      : 50.0000
#PROBECUR    : 692000.
#MAGCAM      : 100.000
#XTILTSTGE   : 0.0
#AZIMANGLE   : 0.0
#ELEVANGLE   : 45.0
#XPOSITION mm: 0.0000
#YPOSITION mm: 0.0000
#ZPOSITION mm: 0.0000
##OXINSTPT   : 4
##OXINSTSTROB: 71.91
#SPECTRUM    : Spectral Data Starts Here
-0.40000, 0.
-0.37000, 0.
-0.34000, 0.
-0.31000, 0.
-0.28000, 0.
-0.25000, 0.
-0.22000, 0.
-0.19000, 0.
-0.16000, 0.
-0.13000, 0.
-0.10000, 0.
-0.07000, 0.
-0.04000, 0.
-0.01000, 0.
0.02000, 0.
0.05000, 0.
0.08000, 0.
0.11000, 0.
0.14000, 0.
0.17000, 0.
0.20000, 0.
0.23000, 0.
0.26000, 0.
0.29000, 0.
0.32000, 0.
0.35000, 1.
0.38000, 8.
0.41000, 25.
0.44000, 42.
0.47000, 24.
0.50000, 39.
0.53000, 25.
0.56000, 48.
0.59000, 29.
0.62000, 43.
0.65000, 44.
0.68000, 38.
0.71000, 32.
0.74000, 47.
0.77000, 30.
0.80000, 47.
0.83000, 31.
0.86000, 31.
0.89000, 41.
0.92000, 44.
0.95000, 44.
0.98000, 49.
1.01000, 51.
1.04000, 47.
1.07000, 60.
1.10000, 48.
1.13000, 48.
1.16000, 40.
1.19000, 51.
1.22000, 53.
1.25000, 91.
1.28000, 71.
1.31000, 40.
1.34000, 47.
1.37000, 50.
1.40000, 81.
1.43000, 263.
1.46000, 547.
1.49000, 792.
1.52000, 593.
1.55000, 327.
1.58000, 168.
1.61000, 107.
1.64000, 331.
1.67000, 1266.
1.70000, 3393.
1.73000, 5708.
1.76000, 5780.
1.79000, 3688.
1.82000, 1549.
1.85000, 543.
1.88000, 251.
1.91000, 100.
1.94000, 65.
1.97000, 71.
2.00000, 89.
2.03000, 67.
2.06000, 57.
2.09000, 54.
2.12000, 35.
2.15000, 35.
2.18000, 23.
2.21000, 18.
2.24000, 32.
2.27000, 47.
2.30000, 48.
2.33000, 47.
2.36000, 51.
2.39000, 38.
2.42000, 31.
2.45000, 44.
2.48000, 35.
2.51000, 38.
2.54000, 42.
2.57000, 47.
2.60000, 92.
2.63000, 181.
2.66000, 295.
2.69000, 417.
2.72000, 404.
2.75000, 327.
2.78000, 219.
2.81000, 253.
2.84000, 275.
2.87000, 220.
2.90000, 164.
2.93000, 99.
2.96000, 84.
2.99000, 59.
3.02000, 44.
3.05000, 28.
3.08000, 49.
3.11000, 28.
3.14000, 40.
3.17000, 34.
3.20000, 78.
3.23000, 175.
3.26000, 400.
3.29000, 670.
3.32000, 750.
3.35000, 624.
3.38000, 382.
3.41000, 144.
3.44000, 68.
3.47000, 58.
3.50000, 50.
3.53000, 92.
3.56000, 148.
3.59000, 289.
3.62000, 521.
3.65000, 969.
3.68000, 1275.
3.71000, 1238.
3.74000, 877.
3.77000, 430.
3.80000, 147.
3.83000, 57.
3.86000, 34.
3.89000, 44.
3.92000, 53.
3.95000, 109.
3.98000, 155.
4.01000, 218.
4.04000, 206.
4.07000, 137.
4.10000, 70.
4.13000, 53.
4.16000, 34.
4.19000, 22.
4.22000, 37.
4.25000, 25.
4.28000, 30.
4.31000, 31.
4.34000, 43.
4.37000, 53.
4.40000, 130.
4.43000, 268.
4.46000, 445.
4.49000, 612.
4.52000, 613.
4.55000, 530.
4.58000, 324.
4.61000, 186.
4.64000, 137.
4.67000, 116.
4.70000, 96.
4.73000, 69.
4.76000, 67.
4.79000, 66.
4.82000, 73.
4.85000, 95.
4.88000, 133.
4.91000, 144.
4.94000, 143.
4.97000, 134.
5.00000, 95.
5.03000, 79.
5.06000, 63.
5.09000, 58.
5.12000, 59.
5.15000, 67.
5.18000, 57.
5.21000, 55.
5.24000, 59.
5.27000, 63.
5.30000, 66.
5.33000, 58.
5.36000, 74.
5.39000, 63.
5.42000, 65.
5.45000, 65.
5.48000, 78.
5.51000, 78.
5.54000, 63.
5.57000, 60.
5.60000, 65.
5.63000, 55.
5.66000, 57.
5.69000, 72.
5.72000, 42.
5.75000, 89.
5.78000, 129.
5.81000, 213.
5.84000, 368.
5.87000, 442.
5.90000, 558.
5.93000, 469.
5.96000, 314.
5.99000, 219.
6.02000, 127.
6.05000, 77.
6.08000, 113.
6.11000, 103.
6.14000, 101.
6.17000, 140.
6.20000, 197.
6.23000, 509.
6.26000, 1414.
6.29000, 3354.
6.32000, 6980.
6.35000, 11502.
6.38000, 15125.
6.41000, 15681.
6.44000, 12478.
6.47000, 8095.
6.50000, 4191.
6.53000, 1747.
6.56000, 643.
6.59000, 234.
6.62000, 117.
6.65000, 118.
6.68000, 93.
6.71000, 120.
6.74000, 107.
6.77000, 104.
6.80000, 115.
6.83000, 125.
6.86000, 178.
6.89000, 233.
6.92000, 453.
6.95000, 771.
6.98000, 1377.
7.01000, 2070.
7.04000, 2470.
7.07000, 2465.
7.10000, 1936.
7.13000, 1305.
7.16000, 707.
7.19000, 310.
7.22000, 165.
7.25000, 93.
7.28000, 62.
7.31000, 64.
7.34000, 68.
7.37000, 84.
7.40000, 70.
7.43000, 87.
7.46000, 74.
7.49000, 72.
7.52000, 80.
7.55000, 69.
7.58000, 72.
7.61000, 50.
7.64000, 71.
7.67000, 71.
7.70000, 80.
7.73000, 81.
7.76000, 82.
7.79000, 83.
7.82000, 89.
7.85000, 113.
7.88000, 121.
7.91000, 99.
7.94000, 113.
7.97000, 111.
8.00000, 146.
8.03000, 139.
8.06000, 127.
8.09000, 149.
8.12000, 149.
8.15000, 136.
8.18000, 124.
8.21000, 139.
8.24000, 97.
8.27000, 104.
8.30000, 107.
8.33000, 99.
8.36000, 110.
8.39000, 108.
8.42000, 107.
8.45000, 115.
8.48000, 118.
8.51000, 102.
8.54000, 126.
8.57000, 138.
8.60000, 146.
8.63000, 163.
8.66000, 180.
8.69000, 140.
8.72000, 131.
8.75000, 123.
8.78000, 115.
8.81000, 103.
8.84000, 113.
8.87000, 114.
8.90000, 107.
8.93000, 119.
8.96000, 125.
8.99000, 116.
9.02000, 125.
9.05000, 95.
9.08000, 118.
9.11000, 98.
9.14000, 141.
9.17000, 127.
9.20000, 116.
9.23000, 114.
9.26000, 131.
9.29000, 128.
9.32000, 130.
9.35000, 123.
9.38000, 140.
9.41000, 148.
9.44000, 129.
9.47000, 122.
9.50000, 110.
9.53000, 121.
9.56000, 131.
9.59000, 140.
9.62000, 115.
9.65000, 129.
9.68000, 131.
9.71000, 134.
9.74000, 125.
9.77000, 127.
9.80000, 143.
9.83000, 114.
9.86000, 115.
9.89000, 104.
9.92000, 108.
9.95000, 137.
9.98000, 120.
10.01000, 127.
10.04000, 138.
10.07000, 126.
10.10000, 130.
10.13000, 109.
10.16000, 135.
10.19000, 125.
10.22000, 128.
10.25000, 127.
10.28000, 126.
10.31000, 120.
10.34000, 115.
10.37000, 159.
10.40000, 136.
10.43000, 150.
10.46000, 130.
10.49000, 144.
10.52000, 144.
10.55000, 133.
10.58000, 155.
10.61000, 142.
10.64000, 118.
10.67000, 138.
10.70000, 132.
10.73000, 132.
10.76000, 111.
10.79000, 113.
10.82000, 119.
10.85000, 141.
10.88000, 114.
10.91000, 111.
10.94000, 121.
10.97000, 134.
11.00000, 128.
11.03000, 156.
11.06000, 135.
11.09000, 147.
11.12000, 138.
11.15000, 132.
11.18000, 140.
11.21000, 110.
11.24000, 142.
11.27000, 122.
11.30000, 124.
11.33000, 138.
11.36000, 144.
11.39000, 125.
11.42000, 150.
11.45000, 152.
11.48000, 132.
11.51000, 127.
11.54000, 138.
11.57000, 114.
11.60000, 157.
11.63000, 114.
11.66000, 157.
11.69000, 139.
11.72000, 161.
11.75000, 129.
11.78000, 149.
11.81000, 118.
11.84000, 153.
11.87000, 151.
11.90000, 138.
11.93000, 121.
11.96000, 146.
11.99000, 156.
12.02000, 150.
12.05000, 130.
12.08000, 124.
12.11000, 145.
12.14000, 129.
12.17000, 135.
12.20000, 135.
12.23000, 166.
12.26000, 174.
12.29000, 128.
12.32000, 142.
12.35000, 129.
12.38000, 138.
12.41000, 113.
12.44000, 145.
12.47000, 152.
12.50000, 156.
12.53000, 153.
12.56000, 122.
12.59000, 160.
12.62000, 147.
12.65000, 181.
12.68000, 161.
12.71000, 174.
12.74000, 153.
12.77000, 185.
12.80000, 210.
12.83000, 161.
12.86000, 189.
12.89000, 181.
12.92000, 142.
12.95000, 160.
12.98000, 176.
13.01000, 134.
13.04000, 132.
13.07000, 140.
13.10000, 159.
13.13000, 151.
13.16000, 162.
13.19000, 141.
13.22000, 181.
13.25000, 172.
13.28000, 154.
13.31000, 200.
13.34000, 206.
13.37000, 229.
13.40000, 208.
13.43000, 181.
13.46000, 177.
13.49000, 157.
13.52000, 135.
13.55000, 179.
13.58000, 162.
13.61000, 154.
13.64000, 161.
13.67000, 156.
13.70000, 163.
13.73000, 141.
13.76000, 152.
13.79000, 156.
13.82000, 159.
13.85000, 181.
13.88000, 142.
13.91000, 163.
13.94000, 172.
13.97000, 223.
14.00000, 277.
14.03000, 342.
14.06000, 366.
14.09000, 404.
14.12000, 398.
14.15000, 434.
14.18000, 378.
14.21000, 344.
14.24000, 264.
14.27000, 223.
14.30000, 195.
14.33000, 147.
14.36000, 145.
14.39000, 166.
14.42000, 133.
14.45000, 131.
14.48000, 132.
14.51000, 135.
14.54000, 153.
14.57000, 139.
14.60000, 138.
14.63000, 130.
14.66000, 140.
14.69000, 152.
14.72000, 156.
14.75000, 147.
14.78000, 157.
14.81000, 177.
14.84000, 151.
14.87000, 189.
14.90000, 174.
14.93000, 163.
14.96000, 163.
14.99000, 168.
15.02000, 171.
15.05000, 151.
15.08000, 162.
15.11000, 155.
15.14000, 167.
15.17000, 142.
15.20000, 161.
15.23000, 145.
15.26000, 156.
15.29000, 147.
15.32000, 164.
15.35000, 152.
15.38000, 142.
15.41000, 153.
15.44000, 142.
15.47000, 140.
15.50000, 180.
15.53000, 229.
15.56000, 272.
15.59000, 344.
15.62000, 447.
15.65000, 566.
15.68000, 622.
15.71000, 672.
15.74000, 727.
15.77000, 642.
15.80000, 623.
15.83000, 498.
15.86000, 366.
15.89000, 278.
15.92000, 260.
15.95000, 186.
15.98000, 183.
16.01000, 169.
16.04000, 161.
16.07000, 145.
16.10000, 172.
16.13000, 167.
16.16000, 129.
16.19000, 142.
16.22000, 155.
16.25000, 159.
16.28000, 134.
16.31000, 141.
16.34000, 155.
16.37000, 161.
16.40000, 147.
16.43000, 149.
16.46000, 151.
16.49000, 138.
16.52000, 148.
16.55000, 166.
16.58000, 164.
16.61000, 132.
16.64000, 155.
16.67000, 160.
16.70000, 143.
16.73000, 128.
16.76000, 137.
16.79000, 140.
16.82000, 155.
16.85000, 143.
16.88000, 140.
16.91000, 139.
16.94000, 140.
16.97000, 127.
17.00000, 150.
17.03000, 137.
17.06000, 154.
17.09000, 150.
17.12000, 149.
17.15000, 133.
17.18000, 171.
17.21000, 148.
17.24000, 172.
17.27000, 160.
17.30000, 179.
17.33000, 166.
17.36000, 182.
17.39000, 146.
17.42000, 167.
17.45000, 176.
17.48000, 188.
17.51000, 168.
17.54000, 189.
17.57000, 232.
17.60000, 248.
17.63000, 269.
17.66000, 260.
17.69000, 227.
17.72000, 225.
17.75000, 227.
17.78000, 224.
17.81000, 212.
17.84000, 198.
17.87000, 201.
17.90000, 195.
17.93000, 228.
17.96000, 201.
17.99000, 237.
18.02000, 235.
18.05000, 215.
18.08000, 254.
18.11000, 262.
18.14000, 231.
18.17000, 266.
18.20000, 256.
18.23000, 288.
18.26000, 305.
18.29000, 289.
18.32000, 327.
18.35000, 374.
18.38000, 391.
18.41000, 458.
18.44000, 501.
18.47000, 512.
18.50000, 551.
18.53000, 586.
18.56000, 666.
18.59000, 736.
18.62000, 764.
18.65000, 762.
18.68000, 824.
18.71000, 852.
18.74000, 853.
18.77000, 884.
18.80000, 914.
18.83000, 901.
18.86000, 841.
18.89000, 817.
18.92000, 824.
18.95000, 737.
18.98000, 741.
19.01000, 665.
19.04000, 617.
19.07000, 571.
19.10000, 518.
19.13000, 484.
19.16000, 453.
19.19000, 413.
19.22000, 350.
19.25000, 338.
19.28000, 338.
19.31000, 298.
19.34000, 250.
19.37000, 260.
19.40000, 247.
19.43000, 252.
19.46000, 231.
19.49000, 208.
19.52000, 210.
19.55000, 188.
19.58000, 218.
19.61000, 194.
19.64000, 146.
19.67000, 170.
19.70000, 161.
19.73000, 182.
19.76000, 182.
19.79000, 153.
19.82000, 160.
19.85000, 178.
19.88000, 209.
19.91000, 240.
19.94000, 281.
19.97000, 308.
20.00000, 393.
20.03000, 429.
20.06000, 460.
20.09000, 536.
20.12000, 532.
20.15000, 562.
20.18000, 503.
20.21000, 536.
20.24000, 415.
20.27000, 352.
20.30000, 269.
20.33000, 244.
20.36000, 217.
20.39000, 174.
20.42000, 165.
20.45000, 170.
20.48000, 167.
20.51000, 171.
20.54000, 141.
20.57000, 148.
20.60000, 166.
20.63000, 151.
20.66000, 164.
20.69000, 170.
20.72000, 199.
20.75000, 212.
20.78000, 217.
20.81000, 205.
20.84000, 222.
20.87000, 228.
20.90000, 222.
20.93000, 239.
20.96000, 254.
20.99000, 251.
21.02000, 216.
21.05000, 265.
21.08000, 217.
21.11000, 247.
21.14000, 232.
21.17000, 231.
21.20000, 190.
21.23000, 194.
21.26000, 192.
21.29000, 190.
21.32000, 170.
21.35000, 167.
21.38000, 189.
21.41000, 143.
21.44000, 151.
21.47000, 131.
21.50000, 148.
21.53000, 116.
21.56000, 136.
21.59000, 115.
21.62000, 109.
21.65000, 120.
21.68000, 113.
21.71000, 105.
21.74000, 102.
21.77000, 107.
21.80000, 118.
21.83000, 121.
21.86000, 95.
21.89000, 90.
21.92000, 121.
21.95000, 89.
21.98000, 100.
22.01000, 82.
22.04000, 93.
22.07000, 83.
22.10000, 83.
22.13000, 87.
22.16000, 106.
22.19000, 82.
22.22000, 102.
22.25000, 73.
22.28000, 69.
22.31000, 90.
22.34000, 86.
22.37000, 77.
22.40000, 87.
22.43000, 96.
22.46000, 83.
22.49000, 71.
22.52000, 98.
22.55000, 124.
22.58000, 120.
22.61000, 134.
22.64000, 130.
22.67000, 151.
22.70000, 131.
22.73000, 121.
22.76000, 109.
22.79000, 107.
22.82000, 94.
22.85000, 91.
22.88000, 87.
22.91000, 70.
22.94000, 84.
22.97000, 90.
23.00000, 84.
23.03000, 75.
23.06000, 83.
23.09000, 84.
23.12000, 80.
23.15000, 68.
23.18000, 95.
23.21000, 61.
23.24000, 62.
23.27000, 65.
23.30000, 64.
23.33000, 64.
23.36000, 67.
23.39000, 72.
23.42000, 66.
23.45000, 64.
23.48000, 61.
23.51000, 65.
23.54000, 58.
23.57000, 67.
23.60000, 62.
23.63000, 64.
23.66000, 65.
23.69000, 69.
23.72000, 76.
23.75000, 71.
23.78000, 78.
23.81000, 66.
23.84000, 63.
23.87000, 78.
23.90000, 57.
23.93000, 75.
23.96000, 71.
23.99000, 78.
24.02000, 71.
24.05000, 65.
24.08000, 43.
24.11000, 68.
24.14000, 60.
24.17000, 54.
24.20000, 80.
24.23000, 58.
24.26000, 56.
24.29000, 55.
24.32000, 52.
24.35000, 77.
24.38000, 58.
24.41000, 53.
24.44000, 57.
24.47000, 81.
24.50000, 53.
24.53000, 74.
24.56000, 58.
24.59000, 53.
24.62000, 52.
24.65000, 59.
24.68000, 64.
24.71000, 54.
24.74000, 57.
24.77000, 62.
24.80000, 74.
24.83000, 60.
24.86000, 69.
24.89000, 62.
24.92000, 83.
24.95000, 65.
24.98000, 58.
25.01000, 65.
25.04000, 59.
25.07000, 74.
25.10000, 72.
25.13000, 61.
25.16000, 65.
25.19000, 71.
25.22000, 61.
25.25000, 71.
25.28000, 65.
25.31000, 75.
25.34000, 68.
25.37000, 73.
25.40000, 62.
25.43000, 56.
25.46000, 67.
25.49000, 59.
25.52000, 62.
25.55000, 41.
25.58000, 74.
25.61000, 49.
25.64000, 53.
25.67000, 63.
25.70000, 57.
25.73000, 58.
25.76000, 63.
25.79000, 52.
25.82000, 41.
25.85000, 59.
25.88000, 60.
25.91000, 53.
25.94000, 51.
25.97000, 62.
26.00000, 65.
26.03000, 51.
26.06000, 54.
26.09000, 53.
26.12000, 61.
26.15000, 58.
26.18000, 49.
26.21000, 51.
26.24000, 42.
26.27000, 56.
26.30000, 45.
26.33000, 44.
26.36000, 57.
26.39000, 48.
26.42000, 46.
26.45000, 49.
26.48000, 56.
26.51000, 50.
26.54000, 65.
26.57000, 61.
26.60000, 52.
26.63000, 70.
26.66000, 54.
26.69000, 48.
26.72000, 49.
26.75000, 61.
26.78000, 51.
26.81000, 51.
26.84000, 50.
26.87000, 40.
26.90000, 54.
26.93000, 47.
26.96000, 47.
26.99000, 59.
27.02000, 44.
27.05000, 59.
27.08000, 51.
27.11000, 60.
27.14000, 61.
27.17000, 46.
27.20000, 45.
27.23000, 43.
27.26000, 41.
27.29000, 46.
27.32000, 47.
27.35000, 46.
27.38000, 56.
27.41000, 38.
27.44000, 47.
27.47000, 41.
27.50000, 32.
27.53000, 45.
27.56000, 41.
27.59000, 50.
27.62000, 54.
27.65000, 49.
27.68000, 49.
27.71000, 46.
27.74000, 41.
27.77000, 52.
27.80000, 42.
27.83000, 50.
27.86000, 57.
27.89000, 37.
27.92000, 48.
27.95000, 43.
27.98000, 37.
28.01000, 47.
28.04000, 53.
28.07000, 43.
28.10000, 45.
28.13000, 50.
28.16000, 44.
28.19000, 58.
28.22000, 45.
28.25000, 46.
28.28000, 39.
28.31000, 54.
28.34000, 41.
28.37000, 41.
28.40000, 38.
28.43000, 36.
28.46000, 37.
28.49000, 26.
28.52000, 38.
28.55000, 37.
28.58000, 41.
28.61000, 49.
28.64000, 39.
28.67000, 39.
28.70000, 38.
28.73000, 32.
28.76000, 44.
28.79000, 50.
28.82000, 44.
28.85000, 45.
28.88000, 44.
28.91000, 31.
28.94000, 46.
28.97000, 41.
29.00000, 44.
29.03000, 35.
29.06000, 43.
29.09000, 50.
29.12000, 46.
29.15000, 41.
29.18000, 37.
29.21000, 36.
29.24000, 37.
29.27000, 46.
29.30000, 38.
29.33000, 30.
29.36000, 32.
29.39000, 32.
29.42000, 46.
29.45000, 30.
29.48000, 30.
29.51000, 31.
29.54000, 36.
29.57000, 40.
29.60000, 28.
29.63000, 35.
29.66000, 43.
29.69000, 33.
29.72000, 25.
29.75000, 30.
29.78000, 35.
29.81000, 40.
29.84000, 39.
29.87000, 33.
29.90000, 29.
29.93000, 35.
29.96000, 36.
29.99000, 33.
30.02000, 41.
30.05000, 30.
30.08000, 42.
30.11000, 38.
30.14000, 30.
30.17000, 30.
30.20000, 38.
30.23000, 29.
30.26000, 43.
30.29000, 35.
30.32000, 40.
30.35000, 45.
30.38000, 42.
30.41000, 35.
30.44000, 38.
30.47000, 36.
30.50000, 27.
30.53000, 28.
30.56000, 23.
30.59000, 35.
30.62000, 30.
30.65000, 30.
30.68000, 31.
30.71000, 28.
30.74000, 20.
30.77000, 30.
30.80000, 39.
30.83000, 32.
30.86000, 38.
30.89000, 36.
30.92000, 33.
30.95000, 26.
30.98000, 26.
31.01000, 42.
31.04000, 32.
31.07000, 27.
31.10000, 33.
31.13000, 25.
31.16000, 25.
31.19000, 23.
31.22000, 33.
31.25000, 29.
31.28000, 26.
31.31000, 21.
31.34000, 38.
31.37000, 26.
31.40000, 31.
31.43000, 25.
31.46000, 35.
31.49000, 28.
31.52000, 33.
31.55000, 30.
31.58000, 26.
31.61000, 28.
31.64000, 36.
31.67000, 28.
31.70000, 34.
31.73000, 31.
31.76000, 29.
31.79000, 34.
31.82000, 33.
31.85000, 23.
31.88000, 29.
31.91000, 41.
31.94000, 37.
31.97000, 31.
32.00000, 42.
32.03000, 27.
32.06000, 25.
32.09000, 38.
32.12000, 34.
32.15000, 33.
32.18000, 38.
32.21000, 32.
32.24000, 35.
32.27000, 39.
32.30000, 24.
32.33000, 23.
32.36000, 27.
32.39000, 29.
32.42000, 29.
32.45000, 27.
32.48000, 27.
32.51000, 38.
32.54000, 22.
32.57000, 22.
32.60000, 19.
32.63000, 30.
32.66000, 22.
32.69000, 25.
32.72000, 17.
32.75000, 25.
32.78000, 29.
32.81000, 21.
32.84000, 25.
32.87000, 35.
32.90000, 24.
32.93000, 21.
32.96000, 18.
32.99000, 21.
33.02000, 25.
33.05000, 30.
33.08000, 23.
33.11000, 25.
33.14000, 26.
33.17000, 24.
33.20000, 26.
33.23000, 18.
33.26000, 27.
33.29000, 17.
33.32000, 28.
33.35000, 19.
33.38000, 18.
33.41000, 23.
33.44000, 26.
33.47000, 17.
33.50000, 22.
33.53000, 14.
33.56000, 16.
33.59000, 21.
33.62000, 23.
33.65000, 25.
33.68000, 17.
33.71000, 19.
33.74000, 16.
33.77000, 15.
33.80000, 10.
33.83000, 15.
33.86000, 19.
33.89000, 21.
33.92000, 17.
33.95000, 18.
33.98000, 16.
34.01000, 20.
34.04000, 16.
34.07000, 25.
34.10000, 14.
34.13000, 22.
34.16000, 24.
34.19000, 20.
34.22000, 19.
34.25000, 15.
34.28000, 19.
34.31000, 26.
34.34000, 13.
34.37000, 15.
34.40000, 23.
34.43000, 17.
34.46000, 14.
34.49000, 18.
34.52000, 11.
34.55000, 15.
34.58000, 16.
34.61000, 16.
34.64000, 29.
34.67000, 12.
34.70000, 23.
34.73000, 22.
34.76000, 27.
34.79000, 13.
34.82000, 17.
34.85000, 19.
34.88000, 16.
34.91000, 13.
34.94000, 11.
34.97000, 18.
35.00000, 14.
35.03000, 11.
35.06000, 14.
35.09000, 21.
35.12000, 22.
35.15000, 21.
35.18000, 11.
35.21000, 16.
35.24000, 12.
35.27000, 16.
35.30000, 20.
35.33000, 15.
35.36000, 13.
35.39000, 15.
35.42000, 17.
35.45000, 13.
35.48000, 23.
35.51000, 12.
35.54000, 8.
35.57000, 20.
35.60000, 11.
35.63000, 13.
35.66000, 18.
35.69000, 13.
35.72000, 14.
35.75000, 10.
35.78000, 14.
35.81000, 15.
35.84000, 20.
35.87000, 7.
35.90000, 12.
35.93000, 18.
35.96000, 13.
35.99000, 16.
36.02000, 15.
36.05000, 15.
36.08000, 17.
36.11000, 15.
36.14000, 7.
36.17000, 21.
36.20000, 21.
36.23000, 19.
36.26000, 15.
36.29000, 11.
36.32000, 15.
36.35000, 7.
36.38000, 9.
36.41000, 21.
36.44000, 12.
36.47000, 11.
36.50000, 15.
36.53000, 18.
36.56000, 14.
36.59000, 8.
36.62000, 19.
36.65000, 13.
36.68000, 12.
36.71000, 14.
36.74000, 11.
36.77000, 8.
36.80000, 15.
36.83000, 8.
36.86000, 20.
36.89000, 7.
36.92000, 5.
36.95000, 13.
36.98000, 15.
37.01000, 9.
37.04000, 8.
37.07000, 17.
37.10000, 11.
37.13000, 12.
37.16000, 20.
37.19000, 8.
37.22000, 9.
37.25000, 8.
37.28000, 13.
37.31000, 5.
37.34000, 11.
37.37000, 5.
37.40000, 9.
37.43000, 13.
37.46000, 12.
37.49000, 10.
37.52000, 9.
37.55000, 7.
37.58000, 11.
37.61000, 14.
37.64000, 5.
37.67000, 7.
37.70000, 13.
37.73000, 6.
37.76000, 10.
37.79000, 10.
37.82000, 11.
37.85000, 7.
37.88000, 12.
37.91000, 4.
37.94000, 14.
37.97000, 4.
38.00000, 9.
38.03000, 11.
38.06000, 13.
38.09000, 8.
38.12000, 8.
38.15000, 9.
38.18000, 11.
38.21000, 5.
38.24000, 12.
38.27000, 11.
38.30000, 8.
38.33000, 12.
38.36000, 11.
38.39000, 9.
38.42000, 5.
38.45000, 10.
38.48000, 5.
38.51000, 3.
38.54000, 7.
38.57000, 12.
38.60000, 4.
38.63000, 12.
38.66000, 5.
38.69000, 8.
38.72000, 7.
38.75000, 5.
38.78000, 5.
38.81000, 8.
38.84000, 3.
38.87000, 4.
38.90000, 8.
38.93000, 6.
38.96000, 8.
38.99000, 5.
39.02000, 5.
39.05000, 8.
39.08000, 7.
39.11000, 3.
39.14000, 7.
39.17000, 10.
39.20000, 5.
39.23000, 4.
39.26000, 9.
39.29000, 3.
39.32000, 6.
39.35000, 8.
39.38000, 6.
39.41000, 15.
39.44000, 5.
39.47000, 3.
39.50000, 9.
39.53000, 4.
39.56000, 9.
39.59000, 2.
39.62000, 3.
39.65000, 10.
39.68000, 7.
39.71000, 3.
39.74000, 5.
39.77000, 6.
39.80000, 3.
39.83000, 2.
39.86000, 3.
39.89000, 0.
39.92000, 6.
39.95000, 4.
39.98000, 6.
40.01000, 4.
40.04000, 4.
40.07000, 2.
40.10000, 7.
40.13000, 7.
40.16000, 6.
40.19000, 5.
40.22000, 9.
40.25000, 2.
40.28000, 5.
40.31000, 6.
40.34000, 6.
40.37000, 2.
40.40000, 5.
40.43000, 2.
40.46000, 7.
40.49000, 5.
40.52000, 2.
40.55000, 0.
#ENDOFDATA   :