File: sample_data/data/Spectrum value from standard/Till 1/Spectrum 3.txt
#FORMAT      : EMSA/MAS Spectral Data File
#VERSION     : 1.0
#TITLE       : Spectrum 3
#DATE        : 21-AUG-2025
#TIME        : 15:07
#OWNER       : XGT7200
#NPOINTS     : 4096.
#NCOLUMNS    : 1.
#XUNITS      : keV
#YUNITS      : counts
#DATATYPE    : XY
#XPERCHAN    : 0.0100000
#OFFSET      : -0.400000
#SIGNALTYPE  : EDS
#CHOFFSET    : 40.0000
#LIVETIME    : 30
#REALTIME    : 39.5898
#BEAMKV      : 50.0000
#PROBECUR    : 703000.
#MAGCAM      : 100.000
#XTILTSTGE   : 0.0
#AZIMANGLE   : 0.0
#ELEVANGLE   : 45.0
#XPOSITION mm: 0.0000
#YPOSITION mm: 0.0000
#ZPOSITION mm: 0.0000
##OXINSTPT   : 4
##OXINSTSTROB: 72.34
#SPECTRUM    : Spectral Data Starts Here
-0.40000, 0.
-0.37000, 0.
-0.34000, 0.
-0.31000, 0.
-0.28000, 0.
-0.25000, 0.
-0.22000, 0.
-0.19000, 0.
-0.16000, 0.
-0.13000, 0.
-0.10000, 0.
-0.07000, 0.
-0.04000, 0.
-0.01000, 0.
0.02000, 0.
0.05000, 0.
0.08000, 0.
0.11000, 0.
0.14000, 0.
0.17000, 0.
0.20000, 0.
0.23000, 0.
0.26000, 0.
0.29000, 0.
0.32000, 0.
0.35000, 4.
0.38000, 10.
0.41000, 29.
0.44000, 41.
0.47000, 38.
0.50000, 46.
0.53000, 46.
0.56000, 51.
0.59000, 41.
0.62000, 47.
0.65000, 36.
0.68000, 40.
0.71000, 29.
0.74000, 33.
0.77000, 38.
0.80000, 34.
0.83000, 36.
0.86000, 48.
0.89000, 43.
0.92000, 45.
0.95000, 50.
0.98000, 44.
1.01000, 62.
1.04000, 53.
1.07000, 40.
1.10000, 38.
1.13000, 32.
1.16000, 35.
1.19000, 41.
1.22000, 69.
1.25000, 74.
1.28000, 63.
1.31000, 53.
1.34000, 51.
1.37000, 48.
1.40000, 113.
1.43000, 278.
1.46000, 594.
1.49000, 789.
1.52000, 678.
1.55000, 350.
1.58000, 139.
1.61000, 106.
1.64000, 292.
1.67000, 1283.
1.70000, 3536.
1.73000, 5711.
1.76000, 5914.
1.79000, 3737.
1.82000, 1586.
1.85000, 547.
1.88000, 195.
1.91000, 92.
1.94000, 58.
1.97000, 75.
2.00000, 80.
2.03000, 82.
2.06000, 47.
2.09000, 45.
2.12000, 38.
2.15000, 25.
2.18000, 31.
2.21000, 23.
2.24000, 45.
2.27000, 59.
2.30000, 49.
2.33000, 46.
2.36000, 46.
2.39000, 33.
2.42000, 36.
2.45000, 39.
2.48000, 22.
2.51000, 32.
2.54000, 38.
2.57000, 60.
2.60000, 90.
2.63000, 182.
2.66000, 309.
2.69000, 438.
2.72000, 431.
2.75000, 365.
2.78000, 240.
2.81000, 236.
2.84000, 243.
2.87000, 221.
2.90000, 185.
2.93000, 115.
2.96000, 103.
2.99000, 63.
3.02000, 53.
3.05000, 43.
3.08000, 37.
3.11000, 29.
3.14000, 37.
3.17000, 32.
3.20000, 71.
3.23000, 199.
3.26000, 379.
3.29000, 733.
3.32000, 835.
3.35000, 633.
3.38000, 364.
3.41000, 147.
3.44000, 84.
3.47000, 40.
3.50000, 47.
3.53000, 108.
3.56000, 154.
3.59000, 307.
3.62000, 526.
3.65000, 943.
3.68000, 1218.
3.71000, 1228.
3.74000, 848.
3.77000, 424.
3.80000, 182.
3.83000, 44.
3.86000, 36.
3.89000, 29.
3.92000, 78.
3.95000, 111.
3.98000, 171.
4.01000, 216.
4.04000, 199.
4.07000, 138.
4.10000, 86.
4.13000, 46.
4.16000, 32.
4.19000, 35.
4.22000, 22.
4.25000, 34.
4.28000, 35.
4.31000, 38.
4.34000, 40.
4.37000, 72.
4.40000, 163.
4.43000, 303.
4.46000, 526.
4.49000, 748.
4.52000, 786.
4.55000, 601.
4.58000, 358.
4.61000, 221.
4.64000, 151.
4.67000, 95.
4.70000, 95.
4.73000, 71.
4.76000, 74.
4.79000, 59.
4.82000, 72.
4.85000, 120.
4.88000, 152.
4.91000, 173.
4.94000, 196.
4.97000, 162.
5.00000, 125.
5.03000, 89.
5.06000, 52.
5.09000, 55.
5.12000, 37.
5.15000, 47.
5.18000, 51.
5.21000, 64.
5.24000, 59.
5.27000, 57.
5.30000, 58.
5.33000, 78.
5.36000, 59.
5.39000, 84.
5.42000, 87.
5.45000, 70.
5.48000, 56.
5.51000, 57.
5.54000, 64.
5.57000, 59.
5.60000, 57.
5.63000, 49.
5.66000, 51.
5.69000, 64.
5.72000, 59.
5.75000, 70.
5.78000, 133.
5.81000, 206.
5.84000, 337.
5.87000, 429.
5.90000, 461.
5.93000, 432.
5.96000, 298.
5.99000, 191.
6.02000, 111.
6.05000, 91.
6.08000, 95.
6.11000, 97.
6.14000, 110.
6.17000, 135.
6.20000, 215.
6.23000, 542.
6.26000, 1448.
6.29000, 3325.
6.32000, 7107.
6.35000, 11412.
6.38000, 15259.
6.41000, 15548.
6.44000, 13084.
6.47000, 8239.
6.50000, 4234.
6.53000, 1719.
6.56000, 624.
6.59000, 254.
6.62000, 138.
6.65000, 107.
6.68000, 115.
6.71000, 86.
6.74000, 106.
6.77000, 120.
6.80000, 120.
6.83000, 134.
6.86000, 152.
6.89000, 282.
6.92000, 400.
6.95000, 848.
6.98000, 1409.
7.01000, 2109.
7.04000, 2558.
7.07000, 2448.
7.10000, 1946.
7.13000, 1193.
7.16000, 670.
7.19000, 339.
7.22000, 152.
7.25000, 105.
7.28000, 80.
7.31000, 72.
7.34000, 85.
7.37000, 62.
7.40000, 76.
7.43000, 77.
7.46000, 72.
7.49000, 96.
7.52000, 74.
7.55000, 109.
7.58000, 72.
7.61000, 69.
7.64000, 67.
7.67000, 72.
7.70000, 71.
7.73000, 83.
7.76000, 83.
7.79000, 93.
7.82000, 81.
7.85000, 106.
7.88000, 100.
7.91000, 104.
7.94000, 104.
7.97000, 112.
8.00000, 128.
8.03000, 154.
8.06000, 145.
8.09000, 141.
8.12000, 146.
8.15000, 131.
8.18000, 108.
8.21000, 114.
8.24000, 131.
8.27000, 114.
8.30000, 104.
8.33000, 103.
8.36000, 112.
8.39000, 116.
8.42000, 106.
8.45000, 98.
8.48000, 108.
8.51000, 107.
8.54000, 115.
8.57000, 143.
8.60000, 145.
8.63000, 151.
8.66000, 145.
8.69000, 142.
8.72000, 115.
8.75000, 120.
8.78000, 80.
8.81000, 118.
8.84000, 128.
8.87000, 107.
8.90000, 107.
8.93000, 119.
8.96000, 109.
8.99000, 127.
9.02000, 122.
9.05000, 111.
9.08000, 104.
9.11000, 125.
9.14000, 114.
9.17000, 109.
9.20000, 138.
9.23000, 137.
9.26000, 131.
9.29000, 130.
9.32000, 129.
9.35000, 129.
9.38000, 135.
9.41000, 124.
9.44000, 121.
9.47000, 126.
9.50000, 120.
9.53000, 127.
9.56000, 141.
9.59000, 145.
9.62000, 109.
9.65000, 151.
9.68000, 139.
9.71000, 133.
9.74000, 115.
9.77000, 118.
9.80000, 130.
9.83000, 114.
9.86000, 142.
9.89000, 139.
9.92000, 113.
9.95000, 127.
9.98000, 135.
10.01000, 111.
10.04000, 118.
10.07000, 129.
10.10000, 125.
10.13000, 130.
10.16000, 130.
10.19000, 135.
10.22000, 146.
10.25000, 98.
10.28000, 140.
10.31000, 117.
10.34000, 123.
10.37000, 128.
10.40000, 121.
10.43000, 138.
10.46000, 146.
10.49000, 138.
10.52000, 165.
10.55000, 153.
10.58000, 134.
10.61000, 112.
10.64000, 142.
10.67000, 133.
10.70000, 127.
10.73000, 131.
10.76000, 128.
10.79000, 125.
10.82000, 160.
10.85000, 150.
10.88000, 135.
10.91000, 139.
10.94000, 129.
10.97000, 129.
11.00000, 138.
11.03000, 128.
11.06000, 109.
11.09000, 128.
11.12000, 143.
11.15000, 134.
11.18000, 130.
11.21000, 138.
11.24000, 138.
11.27000, 146.
11.30000, 142.
11.33000, 147.
11.36000, 147.
11.39000, 146.
11.42000, 130.
11.45000, 136.
11.48000, 137.
11.51000, 166.
11.54000, 150.
11.57000, 147.
11.60000, 118.
11.63000, 143.
11.66000, 137.
11.69000, 128.
11.72000, 130.
11.75000, 148.
11.78000, 135.
11.81000, 120.
11.84000, 163.
11.87000, 134.
11.90000, 132.
11.93000, 144.
11.96000, 151.
11.99000, 162.
12.02000, 147.
12.05000, 151.
12.08000, 130.
12.11000, 135.
12.14000, 132.
12.17000, 139.
12.20000, 138.
12.23000, 162.
12.26000, 144.
12.29000, 160.
12.32000, 150.
12.35000, 140.
12.38000, 143.
12.41000, 154.
12.44000, 162.
12.47000, 127.
12.50000, 167.
12.53000, 134.
12.56000, 136.
12.59000, 161.
12.62000, 149.
12.65000, 163.
12.68000, 177.
12.71000, 163.
12.74000, 176.
12.77000, 181.
12.80000, 195.
12.83000, 175.
12.86000, 205.
12.89000, 152.
12.92000, 156.
12.95000, 141.
12.98000, 175.
13.01000, 151.
13.04000, 128.
13.07000, 146.
13.10000, 144.
13.13000, 125.
13.16000, 144.
13.19000, 176.
13.22000, 157.
13.25000, 172.
13.28000, 182.
13.31000, 189.
13.34000, 195.
13.37000, 206.
13.40000, 188.
13.43000, 182.
13.46000, 182.
13.49000, 171.
13.52000, 150.
13.55000, 152.
13.58000, 138.
13.61000, 151.
13.64000, 154.
13.67000, 159.
13.70000, 159.
13.73000, 145.
13.76000, 154.
13.79000, 130.
13.82000, 117.
13.85000, 139.
13.88000, 154.
13.91000, 168.
13.94000, 169.
13.97000, 204.
14.00000, 243.
14.03000, 322.
14.06000, 376.
14.09000, 393.
14.12000, 402.
14.15000, 435.
14.18000, 377.
14.21000, 336.
14.24000, 268.
14.27000, 215.
14.30000, 175.
14.33000, 174.
14.36000, 151.
14.39000, 148.
14.42000, 145.
14.45000, 135.
14.48000, 141.
14.51000, 148.
14.54000, 140.
14.57000, 162.
14.60000, 164.
14.63000, 147.
14.66000, 139.
14.69000, 141.
14.72000, 144.
14.75000, 151.
14.78000, 169.
14.81000, 170.
14.84000, 190.
14.87000, 173.
14.90000, 176.
14.93000, 173.
14.96000, 172.
14.99000, 182.
15.02000, 153.
15.05000, 160.
15.08000, 155.
15.11000, 170.
15.14000, 166.
15.17000, 131.
15.20000, 154.
15.23000, 163.
15.26000, 142.
15.29000, 155.
15.32000, 138.
15.35000, 138.
15.38000, 145.
15.41000, 160.
15.44000, 136.
15.47000, 155.
15.50000, 183.
15.53000, 201.
15.56000, 224.
15.59000, 285.
15.62000, 335.
15.65000, 449.
15.68000, 463.
15.71000, 490.
15.74000, 543.
15.77000, 481.
15.80000, 442.
15.83000, 368.
15.86000, 299.
15.89000, 254.
15.92000, 220.
15.95000, 172.
15.98000, 190.
16.01000, 147.
16.04000, 164.
16.07000, 161.
16.10000, 139.
16.13000, 144.
16.16000, 147.
16.19000, 163.
16.22000, 157.
16.25000, 136.
16.28000, 156.
16.31000, 151.
16.34000, 150.
16.37000, 126.
16.40000, 99.
16.43000, 146.
16.46000, 149.
16.49000, 153.
16.52000, 141.
16.55000, 137.
16.58000, 165.
16.61000, 142.
16.64000, 160.
16.67000, 167.
16.70000, 148.
16.73000, 150.
16.76000, 142.
16.79000, 159.
16.82000, 124.
16.85000, 166.
16.88000, 137.
16.91000, 158.
16.94000, 149.
16.97000, 174.
17.00000, 127.
17.03000, 153.
17.06000, 155.
17.09000, 166.
17.12000, 152.
17.15000, 124.
17.18000, 163.
17.21000, 151.
17.24000, 142.
17.27000, 143.
17.30000, 160.
17.33000, 166.
17.36000, 135.
17.39000, 160.
17.42000, 188.
17.45000, 182.
17.48000, 169.
17.51000, 195.
17.54000, 203.
17.57000, 234.
17.60000, 233.
17.63000, 246.
17.66000, 239.
17.69000, 235.
17.72000, 232.
17.75000, 206.
17.78000, 197.
17.81000, 178.
17.84000, 199.
17.87000, 171.
17.90000, 245.
17.93000, 232.
17.96000, 218.
17.99000, 197.
18.02000, 231.
18.05000, 226.
18.08000, 215.
18.11000, 246.
18.14000, 246.
18.17000, 236.
18.20000, 291.
18.23000, 296.
18.26000, 292.
18.29000, 353.
18.32000, 339.
18.35000, 373.
18.38000, 377.
18.41000, 429.
18.44000, 486.
18.47000, 523.
18.50000, 543.
18.53000, 633.
18.56000, 664.
18.59000, 699.
18.62000, 737.
18.65000, 798.
18.68000, 805.
18.71000, 808.
18.74000, 799.
18.77000, 852.
18.80000, 873.
18.83000, 858.
18.86000, 810.
18.89000, 769.
18.92000, 793.
18.95000, 721.
18.98000, 681.
19.01000, 688.
19.04000, 614.
19.07000, 573.
19.10000, 530.
19.13000, 498.
19.16000, 469.
19.19000, 437.
19.22000, 343.
19.25000, 352.
19.28000, 318.
19.31000, 290.
19.34000, 275.
19.37000, 280.
19.40000, 245.
19.43000, 266.
19.46000, 222.
19.49000, 212.
19.52000, 215.
19.55000, 231.
19.58000, 184.
19.61000, 178.
19.64000, 192.
19.67000, 178.
19.70000, 176.
19.73000, 168.
19.76000, 167.
19.79000, 149.
19.82000, 187.
19.85000, 184.
19.88000, 194.
19.91000, 239.
19.94000, 259.
19.97000, 313.
20.00000, 379.
20.03000, 374.
20.06000, 423.
20.09000, 523.
20.12000, 529.
20.15000, 473.
20.18000, 508.
20.21000, 446.
20.24000, 390.
20.27000, 366.
20.30000, 286.
20.33000, 232.
20.36000, 213.
20.39000, 175.
20.42000, 164.
20.45000, 170.
20.48000, 152.
20.51000, 166.
20.54000, 159.
20.57000, 155.
20.60000, 164.
20.63000, 170.
20.66000, 187.
20.69000, 183.
20.72000, 196.
20.75000, 191.
20.78000, 198.
20.81000, 197.
20.84000, 231.
20.87000, 214.
20.90000, 206.
20.93000, 253.
20.96000, 192.
20.99000, 238.
21.02000, 221.
21.05000, 233.
21.08000, 220.
21.11000, 218.
21.14000, 211.
21.17000, 196.
21.20000, 197.
21.23000, 204.
21.26000, 210.
21.29000, 161.
21.32000, 195.
21.35000, 165.
21.38000, 171.
21.41000, 157.
21.44000, 151.
21.47000, 167.
21.50000, 123.
21.53000, 135.
21.56000, 122.
21.59000, 147.
21.62000, 125.
21.65000, 116.
21.68000, 122.
21.71000, 124.
21.74000, 103.
21.77000, 104.
21.80000, 98.
21.83000, 104.
21.86000, 95.
21.89000, 81.
21.92000, 100.
21.95000, 91.
21.98000, 103.
22.01000, 92.
22.04000, 104.
22.07000, 108.
22.10000, 96.
22.13000, 96.
22.16000, 86.
22.19000, 96.
22.22000, 72.
22.25000, 90.
22.28000, 78.
22.31000, 78.
22.34000, 67.
22.37000, 87.
22.40000, 66.
22.43000, 87.
22.46000, 93.
22.49000, 82.
22.52000, 78.
22.55000, 86.
22.58000, 113.
22.61000, 131.
22.64000, 139.
22.67000, 145.
22.70000, 148.
22.73000, 112.
22.76000, 108.
22.79000, 101.
22.82000, 116.
22.85000, 98.
22.88000, 91.
22.91000, 62.
22.94000, 77.
22.97000, 67.
23.00000, 79.
23.03000, 82.
23.06000, 75.
23.09000, 86.
23.12000, 69.
23.15000, 76.
23.18000, 79.
23.21000, 69.
23.24000, 68.
23.27000, 78.
23.30000, 76.
23.33000, 58.
23.36000, 62.
23.39000, 70.
23.42000, 60.
23.45000, 64.
23.48000, 70.
23.51000, 52.
23.54000, 70.
23.57000, 66.
23.60000, 83.
23.63000, 69.
23.66000, 58.
23.69000, 57.
23.72000, 62.
23.75000, 84.
23.78000, 69.
23.81000, 54.
23.84000, 74.
23.87000, 61.
23.90000, 66.
23.93000, 57.
23.96000, 67.
23.99000, 65.
24.02000, 66.
24.05000, 46.
24.08000, 62.
24.11000, 47.
24.14000, 62.
24.17000, 64.
24.20000, 71.
24.23000, 66.
24.26000, 62.
24.29000, 73.
24.32000, 66.
24.35000, 69.
24.38000, 67.
24.41000, 56.
24.44000, 64.
24.47000, 62.
24.50000, 65.
24.53000, 58.
24.56000, 58.
24.59000, 61.
24.62000, 71.
24.65000, 53.
24.68000, 48.
24.71000, 66.
24.74000, 54.
24.77000, 56.
24.80000, 57.
24.83000, 58.
24.86000, 71.
24.89000, 44.
24.92000, 69.
24.95000, 71.
24.98000, 72.
25.01000, 69.
25.04000, 58.
25.07000, 61.
25.10000, 69.
25.13000, 71.
25.16000, 75.
25.19000, 62.
25.22000, 66.
25.25000, 64.
25.28000, 60.
25.31000, 67.
25.34000, 61.
25.37000, 83.
25.40000, 59.
25.43000, 63.
25.46000, 61.
25.49000, 58.
25.52000, 59.
25.55000, 64.
25.58000, 59.
25.61000, 50.
25.64000, 68.
25.67000, 40.
25.70000, 71.
25.73000, 67.
25.76000, 51.
25.79000, 62.
25.82000, 55.
25.85000, 55.
25.88000, 68.
25.91000, 59.
25.94000, 45.
25.97000, 57.
26.00000, 40.
26.03000, 65.
26.06000, 62.
26.09000, 44.
26.12000, 54.
26.15000, 57.
26.18000, 47.
26.21000, 42.
26.24000, 50.
26.27000, 48.
26.30000, 53.
26.33000, 50.
26.36000, 61.
26.39000, 45.
26.42000, 60.
26.45000, 46.
26.48000, 48.
26.51000, 40.
26.54000, 52.
26.57000, 62.
26.60000, 51.
26.63000, 62.
26.66000, 46.
26.69000, 52.
26.72000, 45.
26.75000, 59.
26.78000, 41.
26.81000, 44.
26.84000, 56.
26.87000, 49.
26.90000, 45.
26.93000, 56.
26.96000, 58.
26.99000, 39.
27.02000, 44.
27.05000, 50.
27.08000, 50.
27.11000, 48.
27.14000, 52.
27.17000, 55.
27.20000, 41.
27.23000, 46.
27.26000, 51.
27.29000, 43.
27.32000, 52.
27.35000, 45.
27.38000, 53.
27.41000, 54.
27.44000, 41.
27.47000, 46.
27.50000, 38.
27.53000, 45.
27.56000, 35.
27.59000, 57.
27.62000, 41.
27.65000, 48.
27.68000, 37.
27.71000, 36.
27.74000, 41.
27.77000, 58.
27.80000, 53.
27.83000, 39.
27.86000, 44.
27.89000, 53.
27.92000, 42.
27.95000, 38.
27.98000, 46.
28.01000, 51.
28.04000, 41.
28.07000, 35.
28.10000, 45.
28.13000, 39.
28.16000, 31.
28.19000, 45.
28.22000, 53.
28.25000, 53.
28.28000, 35.
28.31000, 38.
28.34000, 57.
28.37000, 43.
28.40000, 52.
28.43000, 36.
28.46000, 43.
28.49000, 40.
28.52000, 40.
28.55000, 32.
28.58000, 42.
28.61000, 42.
28.64000, 48.
28.67000, 41.
28.70000, 44.
28.73000, 31.
28.76000, 41.
28.79000, 34.
28.82000, 41.
28.85000, 31.
28.88000, 39.
28.91000, 33.
28.94000, 43.
28.97000, 33.
29.00000, 36.
29.03000, 40.
29.06000, 35.
29.09000, 29.
29.12000, 47.
29.15000, 41.
29.18000, 42.
29.21000, 45.
29.24000, 37.
29.27000, 28.
29.30000, 32.
29.33000, 33.
29.36000, 32.
29.39000, 54.
29.42000, 39.
29.45000, 38.
29.48000, 43.
29.51000, 41.
29.54000, 42.
29.57000, 29.
29.60000, 36.
29.63000, 31.
29.66000, 29.
29.69000, 41.
29.72000, 28.
29.75000, 33.
29.78000, 44.
29.81000, 40.
29.84000, 42.
29.87000, 31.
29.90000, 45.
29.93000, 33.
29.96000, 35.
29.99000, 35.
30.02000, 31.
30.05000, 40.
30.08000, 38.
30.11000, 31.
30.14000, 43.
30.17000, 25.
30.20000, 33.
30.23000, 28.
30.26000, 31.
30.29000, 41.
30.32000, 26.
30.35000, 37.
30.38000, 23.
30.41000, 42.
30.44000, 29.
30.47000, 38.
30.50000, 46.
30.53000, 38.
30.56000, 33.
30.59000, 28.
30.62000, 28.
30.65000, 31.
30.68000, 34.
30.71000, 35.
30.74000, 30.
30.77000, 37.
30.80000, 27.
30.83000, 21.
30.86000, 32.
30.89000, 27.
30.92000, 34.
30.95000, 36.
30.98000, 27.
31.01000, 38.
31.04000, 32.
31.07000, 29.
31.10000, 24.
31.13000, 25.
31.16000, 25.
31.19000, 22.
31.22000, 26.
31.25000, 23.
31.28000, 35.
31.31000, 33.
31.34000, 27.
31.37000, 33.
31.40000, 32.
31.43000, 36.
31.46000, 24.
31.49000, 28.
31.52000, 28.
31.55000, 28.
31.58000, 32.
31.61000, 23.
31.64000, 23.
31.67000, 29.
31.70000, 29.
31.73000, 33.
31.76000, 34.
31.79000, 32.
31.82000, 30.
31.85000, 30.
31.88000, 19.
31.91000, 36.
31.94000, 30.
31.97000, 23.
32.00000, 38.
32.03000, 25.
32.06000, 22.
32.09000, 31.
32.12000, 27.
32.15000, 43.
32.18000, 31.
32.21000, 44.
32.24000, 29.
32.27000, 37.
32.30000, 17.
32.33000, 24.
32.36000, 30.
32.39000, 31.
32.42000, 26.
32.45000, 23.
32.48000, 27.
32.51000, 31.
32.54000, 23.
32.57000, 32.
32.60000, 32.
32.63000, 23.
32.66000, 27.
32.69000, 26.
32.72000, 30.
32.75000, 23.
32.78000, 18.
32.81000, 25.
32.84000, 24.
32.87000, 17.
32.90000, 19.
32.93000, 28.
32.96000, 24.
32.99000, 18.
33.02000, 26.
33.05000, 14.
33.08000, 17.
33.11000, 23.
33.14000, 21.
33.17000, 25.
33.20000, 18.
33.23000, 16.
33.26000, 18.
33.29000, 25.
33.32000, 19.
33.35000, 30.
33.38000, 23.
33.41000, 24.
33.44000, 20.
33.47000, 19.
33.50000, 15.
33.53000, 24.
33.56000, 23.
33.59000, 16.
33.62000, 19.
33.65000, 25.
33.68000, 23.
33.71000, 17.
33.74000, 20.
33.77000, 18.
33.80000, 16.
33.83000, 15.
33.86000, 18.
33.89000, 22.
33.92000, 15.
33.95000, 24.
33.98000, 13.
34.01000, 19.
34.04000, 14.
34.07000, 23.
34.10000, 21.
34.13000, 24.
34.16000, 23.
34.19000, 20.
34.22000, 14.
34.25000, 25.
34.28000, 21.
34.31000, 14.
34.34000, 24.
34.37000, 16.
34.40000, 18.
34.43000, 16.
34.46000, 18.
34.49000, 19.
34.52000, 17.
34.55000, 11.
34.58000, 18.
34.61000, 20.
34.64000, 15.
34.67000, 12.
34.70000, 19.
34.73000, 21.
34.76000, 14.
34.79000, 17.
34.82000, 13.
34.85000, 13.
34.88000, 16.
34.91000, 25.
34.94000, 13.
34.97000, 25.
35.00000, 11.
35.03000, 16.
35.06000, 16.
35.09000, 14.
35.12000, 16.
35.15000, 15.
35.18000, 16.
35.21000, 20.
35.24000, 21.
35.27000, 12.
35.30000, 16.
35.33000, 20.
35.36000, 16.
35.39000, 15.
35.42000, 16.
35.45000, 17.
35.48000, 13.
35.51000, 13.
35.54000, 15.
35.57000, 19.
35.60000, 18.
35.63000, 13.
35.66000, 11.
35.69000, 12.
35.72000, 20.
35.75000, 23.
35.78000, 14.
35.81000, 12.
35.84000, 16.
35.87000, 14.
35.90000, 10.
35.93000, 13.
35.96000, 11.
35.99000, 16.
36.02000, 14.
36.05000, 11.
36.08000, 22.
36.11000, 15.
36.14000, 8.
36.17000, 18.
36.20000, 10.
36.23000, 12.
36.26000, 13.
36.29000, 9.
36.32000, 7.
36.35000, 15.
36.38000, 11.
36.41000, 20.
36.44000, 13.
36.47000, 11.
36.50000, 15.
36.53000, 10.
36.56000, 16.
36.59000, 8.
36.62000, 8.
36.65000, 13.
36.68000, 16.
36.71000, 12.
36.74000, 9.
36.77000, 11.
36.80000, 14.
36.83000, 12.
36.86000, 13.
36.89000, 13.
36.92000, 18.
36.95000, 10.
36.98000, 9.
37.01000, 10.
37.04000, 9.
37.07000, 21.
37.10000, 10.
37.13000, 8.
37.16000, 12.
37.19000, 9.
37.22000, 15.
37.25000, 6.
37.28000, 11.
37.31000, 17.
37.34000, 10.
37.37000, 11.
37.40000, 13.
37.43000, 12.
37.46000, 10.
37.49000, 7.
37.52000, 11.
37.55000, 10.
37.58000, 6.
37.61000, 12.
37.64000, 8.
37.67000, 13.
37.70000, 10.
37.73000, 8.
37.76000, 9.
37.79000, 8.
37.82000, 7.
37.85000, 8.
37.88000, 6.
37.91000, 10.
37.94000, 9.
37.97000, 10.
38.00000, 6.
38.03000, 8.
38.06000, 5.
38.09000, 9.
38.12000, 10.
38.15000, 7.
38.18000, 6.
38.21000, 10.
38.24000, 15.
38.27000, 7.
38.30000, 11.
38.33000, 13.
38.36000, 2.
38.39000, 8.
38.42000, 7.
38.45000, 6.
38.48000, 8.
38.51000, 8.
38.54000, 6.
38.57000, 8.
38.60000, 15.
38.63000, 8.
38.66000, 8.
38.69000, 10.
38.72000, 9.
38.75000, 4.
38.78000, 4.
38.81000, 5.
38.84000, 4.
38.87000, 6.
38.90000, 8.
38.93000, 11.
38.96000, 3.
38.99000, 5.
39.02000, 5.
39.05000, 8.
39.08000, 7.
39.11000, 11.
39.14000, 8.
39.17000, 6.
39.20000, 4.
39.23000, 4.
39.26000, 9.
39.29000, 3.
39.32000, 5.
39.35000, 6.
39.38000, 7.
39.41000, 9.
39.44000, 7.
39.47000, 6.
39.50000, 4.
39.53000, 0.
39.56000, 7.
39.59000, 4.
39.62000, 6.
39.65000, 4.
39.68000, 7.
39.71000, 5.
39.74000, 5.
39.77000, 5.
39.80000, 4.
39.83000, 4.
39.86000, 3.
39.89000, 6.
39.92000, 4.
39.95000, 6.
39.98000, 8.
40.01000, 10.
40.04000, 2.
40.07000, 4.
40.10000, 5.
40.13000, 2.
40.16000, 6.
40.19000, 7.
40.22000, 4.
40.25000, 1.
40.28000, 3.
40.31000, 4.
40.34000, 3.
40.37000, 2.
40.40000, 11.
40.43000, 6.
40.46000, 2.
40.49000, 0.
40.52000, 1.
40.55000, 0.
#ENDOFDATA   :