File: sample_data/data/Spectrum value from standard/Till 1/Spectrum 5.txt
#FORMAT      : EMSA/MAS Spectral Data File
#VERSION     : 1.0
#TITLE       : Spectrum 5
#DATE        : 21-AUG-2025
#TIME        : 15:09
#OWNER       : XGT7200
#NPOINTS     : 4096.
#NCOLUMNS    : 1.
#XUNITS      : keV
#YUNITS      : counts
#DATATYPE    : XY
#XPERCHAN    : 0.0100000
#OFFSET      : -0.400000
#SIGNALTYPE  : EDS
#CHOFFSET    : 40.0000
#LIVETIME    : 30
#REALTIME    : 39.6464
#BEAMKV      : 50.0000
#PROBECUR    : 714000.
#MAGCAM      : 100.000
#XTILTSTGE   : 0.0
#AZIMANGLE   : 0.0
#ELEVANGLE   : 45.0
#XPOSITION mm: 0.0000
#YPOSITION mm: 0.0000
#ZPOSITION mm: 0.0000
##OXINSTPT   : 4
##OXINSTSTROB: 71.90
#SPECTRUM    : Spectral Data Starts Here
-0.40000, 0.
-0.37000, 0.
-0.34000, 0.
-0.31000, 0.
-0.28000, 0.
-0.25000, 0.
-0.22000, 0.
-0.19000, 0.
-0.16000, 0.
-0.13000, 0.
-0.10000, 0.
-0.07000, 0.
-0.04000, 0.
-0.01000, 0.
0.02000, 0.
0.05000, 0.
0.08000, 0.
0.11000, 0.
0.14000, 0.
0.17000, 0.
0.20000, 0.
0.23000, 0.
0.26000, 0.
0.29000, 0.
0.32000, 1.
0.35000, 2.
0.38000, 7.
0.41000, 35.
0.44000, 38.
0.47000, 48.
0.50000, 36.
0.53000, 53.
0.56000, 42.
0.59000, 47.
0.62000, 45.
0.65000, 47.
0.68000, 28.
0.71000, 29.
0.74000, 35.
0.77000, 55.
0.80000, 41.
0.83000, 44.
0.86000, 38.
0.89000, 42.
0.92000, 35.
0.95000, 45.
0.98000, 53.
1.01000, 46.
1.04000, 51.
1.07000, 43.
1.10000, 42.
1.13000, 47.
1.16000, 31.
1.19000, 41.
1.22000, 69.
1.25000, 82.
1.28000, 62.
1.31000, 53.
1.34000, 44.
1.37000, 61.
1.40000, 112.
1.43000, 280.
1.46000, 587.
1.49000, 795.
1.52000, 644.
1.55000, 331.
1.58000, 163.
1.61000, 101.
1.64000, 380.
1.67000, 1266.
1.70000, 3432.
1.73000, 5858.
1.76000, 6092.
1.79000, 3737.
1.82000, 1607.
1.85000, 546.
1.88000, 226.
1.91000, 102.
1.94000, 67.
1.97000, 88.
2.00000, 99.
2.03000, 84.
2.06000, 79.
2.09000, 47.
2.12000, 36.
2.15000, 19.
2.18000, 41.
2.21000, 30.
2.24000, 29.
2.27000, 45.
2.30000, 56.
2.33000, 37.
2.36000, 47.
2.39000, 39.
2.42000, 39.
2.45000, 29.
2.48000, 31.
2.51000, 34.
2.54000, 40.
2.57000, 49.
2.60000, 102.
2.63000, 197.
2.66000, 354.
2.69000, 400.
2.72000, 390.
2.75000, 316.
2.78000, 254.
2.81000, 211.
2.84000, 235.
2.87000, 197.
2.90000, 150.
2.93000, 126.
2.96000, 82.
2.99000, 74.
3.02000, 58.
3.05000, 36.
3.08000, 43.
3.11000, 29.
3.14000, 27.
3.17000, 46.
3.20000, 89.
3.23000, 185.
3.26000, 412.
3.29000, 674.
3.32000, 767.
3.35000, 608.
3.38000, 353.
3.41000, 151.
3.44000, 72.
3.47000, 59.
3.50000, 52.
3.53000, 86.
3.56000, 153.
3.59000, 281.
3.62000, 540.
3.65000, 889.
3.68000, 1233.
3.71000, 1213.
3.74000, 812.
3.77000, 391.
3.80000, 160.
3.83000, 62.
3.86000, 37.
3.89000, 56.
3.92000, 70.
3.95000, 112.
3.98000, 153.
4.01000, 216.
4.04000, 167.
4.07000, 125.
4.10000, 75.
4.13000, 45.
4.16000, 23.
4.19000, 26.
4.22000, 30.
4.25000, 35.
4.28000, 24.
4.31000, 19.
4.34000, 47.
4.37000, 53.
4.40000, 114.
4.43000, 224.
4.46000, 437.
4.49000, 593.
4.52000, 590.
4.55000, 523.
4.58000, 299.
4.61000, 184.
4.64000, 129.
4.67000, 128.
4.70000, 83.
4.73000, 70.
4.76000, 68.
4.79000, 74.
4.82000, 96.
4.85000, 112.
4.88000, 133.
4.91000, 145.
4.94000, 168.
4.97000, 122.
5.00000, 99.
5.03000, 62.
5.06000, 59.
5.09000, 57.
5.12000, 52.
5.15000, 53.
5.18000, 57.
5.21000, 62.
5.24000, 69.
5.27000, 57.
5.30000, 81.
5.33000, 69.
5.36000, 79.
5.39000, 74.
5.42000, 67.
5.45000, 80.
5.48000, 78.
5.51000, 66.
5.54000, 77.
5.57000, 72.
5.60000, 66.
5.63000, 67.
5.66000, 47.
5.69000, 41.
5.72000, 51.
5.75000, 62.
5.78000, 106.
5.81000, 179.
5.84000, 312.
5.87000, 411.
5.90000, 437.
5.93000, 413.
5.96000, 294.
5.99000, 188.
6.02000, 120.
6.05000, 89.
6.08000, 88.
6.11000, 85.
6.14000, 93.
6.17000, 129.
6.20000, 247.
6.23000, 503.
6.26000, 1346.
6.29000, 3424.
6.32000, 7085.
6.35000, 11560.
6.38000, 15473.
6.41000, 15802.
6.44000, 12995.
6.47000, 8220.
6.50000, 4274.
6.53000, 1769.
6.56000, 668.
6.59000, 267.
6.62000, 129.
6.65000, 98.
6.68000, 85.
6.71000, 94.
6.74000, 116.
6.77000, 105.
6.80000, 114.
6.83000, 140.
6.86000, 174.
6.89000, 241.
6.92000, 391.
6.95000, 785.
6.98000, 1447.
7.01000, 2183.
7.04000, 2613.
7.07000, 2469.
7.10000, 1989.
7.13000, 1327.
7.16000, 686.
7.19000, 341.
7.22000, 163.
7.25000, 93.
7.28000, 84.
7.31000, 75.
7.34000, 78.
7.37000, 76.
7.40000, 75.
7.43000, 95.
7.46000, 85.
7.49000, 77.
7.52000, 73.
7.55000, 79.
7.58000, 71.
7.61000, 73.
7.64000, 85.
7.67000, 71.
7.70000, 74.
7.73000, 74.
7.76000, 73.
7.79000, 86.
7.82000, 90.
7.85000, 77.
7.88000, 95.
7.91000, 95.
7.94000, 132.
7.97000, 123.
8.00000, 138.
8.03000, 164.
8.06000, 153.
8.09000, 154.
8.12000, 141.
8.15000, 139.
8.18000, 127.
8.21000, 129.
8.24000, 108.
8.27000, 111.
8.30000, 114.
8.33000, 92.
8.36000, 92.
8.39000, 105.
8.42000, 111.
8.45000, 110.
8.48000, 111.
8.51000, 128.
8.54000, 117.
8.57000, 128.
8.60000, 147.
8.63000, 182.
8.66000, 143.
8.69000, 155.
8.72000, 124.
8.75000, 117.
8.78000, 117.
8.81000, 112.
8.84000, 107.
8.87000, 109.
8.90000, 108.
8.93000, 130.
8.96000, 109.
8.99000, 103.
9.02000, 112.
9.05000, 118.
9.08000, 122.
9.11000, 121.
9.14000, 132.
9.17000, 149.
9.20000, 118.
9.23000, 114.
9.26000, 141.
9.29000, 112.
9.32000, 124.
9.35000, 114.
9.38000, 124.
9.41000, 134.
9.44000, 133.
9.47000, 111.
9.50000, 122.
9.53000, 141.
9.56000, 132.
9.59000, 143.
9.62000, 146.
9.65000, 139.
9.68000, 130.
9.71000, 144.
9.74000, 126.
9.77000, 125.
9.80000, 136.
9.83000, 132.
9.86000, 110.
9.89000, 111.
9.92000, 108.
9.95000, 131.
9.98000, 122.
10.01000, 110.
10.04000, 140.
10.07000, 127.
10.10000, 133.
10.13000, 119.
10.16000, 162.
10.19000, 138.
10.22000, 124.
10.25000, 133.
10.28000, 130.
10.31000, 131.
10.34000, 140.
10.37000, 129.
10.40000, 130.
10.43000, 109.
10.46000, 123.
10.49000, 151.
10.52000, 168.
10.55000, 174.
10.58000, 140.
10.61000, 129.
10.64000, 141.
10.67000, 151.
10.70000, 129.
10.73000, 119.
10.76000, 137.
10.79000, 116.
10.82000, 156.
10.85000, 120.
10.88000, 139.
10.91000, 121.
10.94000, 117.
10.97000, 119.
11.00000, 137.
11.03000, 120.
11.06000, 128.
11.09000, 135.
11.12000, 139.
11.15000, 146.
11.18000, 127.
11.21000, 124.
11.24000, 118.
11.27000, 147.
11.30000, 152.
11.33000, 155.
11.36000, 127.
11.39000, 153.
11.42000, 148.
11.45000, 129.
11.48000, 139.
11.51000, 124.
11.54000, 133.
11.57000, 129.
11.60000, 142.
11.63000, 135.
11.66000, 151.
11.69000, 160.
11.72000, 142.
11.75000, 134.
11.78000, 131.
11.81000, 150.
11.84000, 123.
11.87000, 153.
11.90000, 152.
11.93000, 142.
11.96000, 135.
11.99000, 139.
12.02000, 147.
12.05000, 154.
12.08000, 149.
12.11000, 148.
12.14000, 118.
12.17000, 143.
12.20000, 155.
12.23000, 144.
12.26000, 133.
12.29000, 130.
12.32000, 165.
12.35000, 133.
12.38000, 141.
12.41000, 141.
12.44000, 128.
12.47000, 143.
12.50000, 157.
12.53000, 169.
12.56000, 143.
12.59000, 166.
12.62000, 167.
12.65000, 169.
12.68000, 175.
12.71000, 180.
12.74000, 185.
12.77000, 187.
12.80000, 200.
12.83000, 188.
12.86000, 168.
12.89000, 181.
12.92000, 131.
12.95000, 161.
12.98000, 161.
13.01000, 165.
13.04000, 171.
13.07000, 167.
13.10000, 154.
13.13000, 169.
13.16000, 138.
13.19000, 161.
13.22000, 174.
13.25000, 151.
13.28000, 166.
13.31000, 182.
13.34000, 201.
13.37000, 181.
13.40000, 181.
13.43000, 200.
13.46000, 147.
13.49000, 173.
13.52000, 180.
13.55000, 178.
13.58000, 151.
13.61000, 151.
13.64000, 167.
13.67000, 151.
13.70000, 156.
13.73000, 143.
13.76000, 147.
13.79000, 144.
13.82000, 170.
13.85000, 136.
13.88000, 160.
13.91000, 172.
13.94000, 176.
13.97000, 203.
14.00000, 258.
14.03000, 314.
14.06000, 387.
14.09000, 436.
14.12000, 455.
14.15000, 450.
14.18000, 367.
14.21000, 313.
14.24000, 279.
14.27000, 237.
14.30000, 162.
14.33000, 171.
14.36000, 150.
14.39000, 161.
14.42000, 140.
14.45000, 141.
14.48000, 158.
14.51000, 166.
14.54000, 158.
14.57000, 163.
14.60000, 161.
14.63000, 157.
14.66000, 138.
14.69000, 137.
14.72000, 157.
14.75000, 162.
14.78000, 171.
14.81000, 180.
14.84000, 171.
14.87000, 164.
14.90000, 189.
14.93000, 191.
14.96000, 168.
14.99000, 159.
15.02000, 157.
15.05000, 182.
15.08000, 163.
15.11000, 154.
15.14000, 158.
15.17000, 139.
15.20000, 153.
15.23000, 142.
15.26000, 127.
15.29000, 168.
15.32000, 162.
15.35000, 171.
15.38000, 147.
15.41000, 147.
15.44000, 154.
15.47000, 158.
15.50000, 200.
15.53000, 231.
15.56000, 241.
15.59000, 309.
15.62000, 428.
15.65000, 530.
15.68000, 563.
15.71000, 633.
15.74000, 624.
15.77000, 622.
15.80000, 549.
15.83000, 455.
15.86000, 377.
15.89000, 271.
15.92000, 237.
15.95000, 205.
15.98000, 170.
16.01000, 160.
16.04000, 151.
16.07000, 150.
16.10000, 170.
16.13000, 156.
16.16000, 137.
16.19000, 145.
16.22000, 153.
16.25000, 137.
16.28000, 132.
16.31000, 150.
16.34000, 151.
16.37000, 121.
16.40000, 138.
16.43000, 135.
16.46000, 172.
16.49000, 151.
16.52000, 170.
16.55000, 174.
16.58000, 153.
16.61000, 172.
16.64000, 158.
16.67000, 160.
16.70000, 156.
16.73000, 160.
16.76000, 146.
16.79000, 167.
16.82000, 178.
16.85000, 130.
16.88000, 145.
16.91000, 145.
16.94000, 146.
16.97000, 128.
17.00000, 159.
17.03000, 137.
17.06000, 163.
17.09000, 147.
17.12000, 166.
17.15000, 155.
17.18000, 141.
17.21000, 158.
17.24000, 163.
17.27000, 137.
17.30000, 161.
17.33000, 141.
17.36000, 146.
17.39000, 149.
17.42000, 172.
17.45000, 200.
17.48000, 176.
17.51000, 211.
17.54000, 202.
17.57000, 206.
17.60000, 224.
17.63000, 274.
17.66000, 251.
17.69000, 237.
17.72000, 229.
17.75000, 231.
17.78000, 201.
17.81000, 237.
17.84000, 177.
17.87000, 223.
17.90000, 210.
17.93000, 243.
17.96000, 229.
17.99000, 205.
18.02000, 209.
18.05000, 226.
18.08000, 234.
18.11000, 224.
18.14000, 246.
18.17000, 261.
18.20000, 265.
18.23000, 296.
18.26000, 324.
18.29000, 314.
18.32000, 346.
18.35000, 395.
18.38000, 386.
18.41000, 441.
18.44000, 519.
18.47000, 513.
18.50000, 522.
18.53000, 609.
18.56000, 632.
18.59000, 691.
18.62000, 767.
18.65000, 741.
18.68000, 755.
18.71000, 892.
18.74000, 893.
18.77000, 843.
18.80000, 806.
18.83000, 907.
18.86000, 903.
18.89000, 821.
18.92000, 774.
18.95000, 729.
18.98000, 704.
19.01000, 701.
19.04000, 600.
19.07000, 577.
19.10000, 537.
19.13000, 458.
19.16000, 466.
19.19000, 402.
19.22000, 417.
19.25000, 362.
19.28000, 351.
19.31000, 337.
19.34000, 274.
19.37000, 239.
19.40000, 282.
19.43000, 242.
19.46000, 271.
19.49000, 209.
19.52000, 193.
19.55000, 189.
19.58000, 199.
19.61000, 180.
19.64000, 142.
19.67000, 165.
19.70000, 170.
19.73000, 163.
19.76000, 159.
19.79000, 160.
19.82000, 158.
19.85000, 178.
19.88000, 198.
19.91000, 247.
19.94000, 283.
19.97000, 289.
20.00000, 386.
20.03000, 477.
20.06000, 448.
20.09000, 509.
20.12000, 550.
20.15000, 525.
20.18000, 486.
20.21000, 521.
20.24000, 410.
20.27000, 334.
20.30000, 298.
20.33000, 254.
20.36000, 226.
20.39000, 173.
20.42000, 165.
20.45000, 165.
20.48000, 157.
20.51000, 146.
20.54000, 163.
20.57000, 174.
20.60000, 170.
20.63000, 173.
20.66000, 181.
20.69000, 175.
20.72000, 195.
20.75000, 189.
20.78000, 190.
20.81000, 203.
20.84000, 228.
20.87000, 236.
20.90000, 238.
20.93000, 241.
20.96000, 257.
20.99000, 195.
21.02000, 210.
21.05000, 233.
21.08000, 261.
21.11000, 215.
21.14000, 236.
21.17000, 185.
21.20000, 201.
21.23000, 201.
21.26000, 184.
21.29000, 178.
21.32000, 187.
21.35000, 179.
21.38000, 173.
21.41000, 183.
21.44000, 151.
21.47000, 154.
21.50000, 163.
21.53000, 135.
21.56000, 142.
21.59000, 151.
21.62000, 135.
21.65000, 114.
21.68000, 94.
21.71000, 99.
21.74000, 98.
21.77000, 106.
21.80000, 110.
21.83000, 100.
21.86000, 97.
21.89000, 102.
21.92000, 94.
21.95000, 99.
21.98000, 97.
22.01000, 93.
22.04000, 92.
22.07000, 107.
22.10000, 86.
22.13000, 91.
22.16000, 87.
22.19000, 82.
22.22000, 101.
22.25000, 74.
22.28000, 79.
22.31000, 85.
22.34000, 93.
22.37000, 83.
22.40000, 91.
22.43000, 83.
22.46000, 78.
22.49000, 95.
22.52000, 94.
22.55000, 108.
22.58000, 120.
22.61000, 123.
22.64000, 142.
22.67000, 130.
22.70000, 157.
22.73000, 127.
22.76000, 126.
22.79000, 92.
22.82000, 115.
22.85000, 85.
22.88000, 87.
22.91000, 75.
22.94000, 65.
22.97000, 74.
23.00000, 78.
23.03000, 75.
23.06000, 64.
23.09000, 68.
23.12000, 65.
23.15000, 79.
23.18000, 75.
23.21000, 87.
23.24000, 86.
23.27000, 92.
23.30000, 60.
23.33000, 81.
23.36000, 62.
23.39000, 74.
23.42000, 76.
23.45000, 63.
23.48000, 71.
23.51000, 77.
23.54000, 60.
23.57000, 59.
23.60000, 56.
23.63000, 68.
23.66000, 80.
23.69000, 61.
23.72000, 61.
23.75000, 63.
23.78000, 66.
23.81000, 67.
23.84000, 59.
23.87000, 68.
23.90000, 65.
23.93000, 77.
23.96000, 74.
23.99000, 80.
24.02000, 54.
24.05000, 62.
24.08000, 66.
24.11000, 61.
24.14000, 60.
24.17000, 59.
24.20000, 49.
24.23000, 53.
24.26000, 59.
24.29000, 68.
24.32000, 51.
24.35000, 76.
24.38000, 58.
24.41000, 57.
24.44000, 57.
24.47000, 57.
24.50000, 56.
24.53000, 65.
24.56000, 52.
24.59000, 64.
24.62000, 63.
24.65000, 60.
24.68000, 51.
24.71000, 60.
24.74000, 60.
24.77000, 65.
24.80000, 54.
24.83000, 44.
24.86000, 75.
24.89000, 76.
24.92000, 67.
24.95000, 70.
24.98000, 77.
25.01000, 58.
25.04000, 57.
25.07000, 54.
25.10000, 66.
25.13000, 73.
25.16000, 63.
25.19000, 74.
25.22000, 63.
25.25000, 73.
25.28000, 70.
25.31000, 64.
25.34000, 63.
25.37000, 65.
25.40000, 69.
25.43000, 64.
25.46000, 54.
25.49000, 59.
25.52000, 56.
25.55000, 54.
25.58000, 80.
25.61000, 48.
25.64000, 50.
25.67000, 62.
25.70000, 60.
25.73000, 49.
25.76000, 54.
25.79000, 54.
25.82000, 48.
25.85000, 58.
25.88000, 45.
25.91000, 59.
25.94000, 61.
25.97000, 65.
26.00000, 47.
26.03000, 60.
26.06000, 48.
26.09000, 50.
26.12000, 59.
26.15000, 57.
26.18000, 67.
26.21000, 42.
26.24000, 53.
26.27000, 61.
26.30000, 70.
26.33000, 47.
26.36000, 63.
26.39000, 60.
26.42000, 47.
26.45000, 51.
26.48000, 38.
26.51000, 52.
26.54000, 50.
26.57000, 45.
26.60000, 44.
26.63000, 50.
26.66000, 50.
26.69000, 28.
26.72000, 50.
26.75000, 49.
26.78000, 58.
26.81000, 43.
26.84000, 42.
26.87000, 51.
26.90000, 51.
26.93000, 49.
26.96000, 42.
26.99000, 52.
27.02000, 47.
27.05000, 52.
27.08000, 50.
27.11000, 52.
27.14000, 64.
27.17000, 45.
27.20000, 60.
27.23000, 50.
27.26000, 52.
27.29000, 59.
27.32000, 46.
27.35000, 50.
27.38000, 37.
27.41000, 50.
27.44000, 54.
27.47000, 41.
27.50000, 47.
27.53000, 46.
27.56000, 40.
27.59000, 42.
27.62000, 45.
27.65000, 42.
27.68000, 35.
27.71000, 50.
27.74000, 54.
27.77000, 49.
27.80000, 46.
27.83000, 50.
27.86000, 52.
27.89000, 47.
27.92000, 40.
27.95000, 43.
27.98000, 57.
28.01000, 43.
28.04000, 54.
28.07000, 38.
28.10000, 42.
28.13000, 50.
28.16000, 48.
28.19000, 53.
28.22000, 38.
28.25000, 34.
28.28000, 38.
28.31000, 40.
28.34000, 48.
28.37000, 43.
28.40000, 26.
28.43000, 42.
28.46000, 47.
28.49000, 47.
28.52000, 47.
28.55000, 31.
28.58000, 36.
28.61000, 44.
28.64000, 42.
28.67000, 29.
28.70000, 46.
28.73000, 38.
28.76000, 46.
28.79000, 38.
28.82000, 44.
28.85000, 38.
28.88000, 43.
28.91000, 42.
28.94000, 42.
28.97000, 40.
29.00000, 56.
29.03000, 42.
29.06000, 49.
29.09000, 46.
29.12000, 42.
29.15000, 42.
29.18000, 47.
29.21000, 45.
29.24000, 44.
29.27000, 35.
29.30000, 31.
29.33000, 38.
29.36000, 41.
29.39000, 33.
29.42000, 40.
29.45000, 36.
29.48000, 43.
29.51000, 28.
29.54000, 36.
29.57000, 40.
29.60000, 37.
29.63000, 45.
29.66000, 30.
29.69000, 31.
29.72000, 41.
29.75000, 37.
29.78000, 40.
29.81000, 37.
29.84000, 35.
29.87000, 29.
29.90000, 37.
29.93000, 35.
29.96000, 38.
29.99000, 44.
30.02000, 34.
30.05000, 35.
30.08000, 36.
30.11000, 40.
30.14000, 34.
30.17000, 36.
30.20000, 25.
30.23000, 35.
30.26000, 30.
30.29000, 39.
30.32000, 36.
30.35000, 30.
30.38000, 25.
30.41000, 29.
30.44000, 36.
30.47000, 30.
30.50000, 32.
30.53000, 22.
30.56000, 29.
30.59000, 39.
30.62000, 31.
30.65000, 35.
30.68000, 37.
30.71000, 28.
30.74000, 29.
30.77000, 27.
30.80000, 23.
30.83000, 23.
30.86000, 29.
30.89000, 31.
30.92000, 30.
30.95000, 23.
30.98000, 24.
31.01000, 37.
31.04000, 38.
31.07000, 34.
31.10000, 32.
31.13000, 36.
31.16000, 20.
31.19000, 25.
31.22000, 31.
31.25000, 26.
31.28000, 25.
31.31000, 25.
31.34000, 37.
31.37000, 33.
31.40000, 20.
31.43000, 20.
31.46000, 37.
31.49000, 27.
31.52000, 30.
31.55000, 31.
31.58000, 26.
31.61000, 34.
31.64000, 23.
31.67000, 37.
31.70000, 31.
31.73000, 29.
31.76000, 38.
31.79000, 27.
31.82000, 24.
31.85000, 28.
31.88000, 25.
31.91000, 23.
31.94000, 43.
31.97000, 38.
32.00000, 42.
32.03000, 34.
32.06000, 35.
32.09000, 42.
32.12000, 31.
32.15000, 27.
32.18000, 28.
32.21000, 32.
32.24000, 24.
32.27000, 25.
32.30000, 31.
32.33000, 29.
32.36000, 23.
32.39000, 22.
32.42000, 35.
32.45000, 25.
32.48000, 22.
32.51000, 21.
32.54000, 21.
32.57000, 23.
32.60000, 17.
32.63000, 30.
32.66000, 19.
32.69000, 17.
32.72000, 24.
32.75000, 24.
32.78000, 23.
32.81000, 24.
32.84000, 31.
32.87000, 26.
32.90000, 27.
32.93000, 24.
32.96000, 28.
32.99000, 25.
33.02000, 18.
33.05000, 12.
33.08000, 20.
33.11000, 25.
33.14000, 22.
33.17000, 26.
33.20000, 18.
33.23000, 20.
33.26000, 24.
33.29000, 18.
33.32000, 19.
33.35000, 23.
33.38000, 22.
33.41000, 18.
33.44000, 18.
33.47000, 18.
33.50000, 28.
33.53000, 21.
33.56000, 21.
33.59000, 23.
33.62000, 29.
33.65000, 19.
33.68000, 20.
33.71000, 30.
33.74000, 17.
33.77000, 15.
33.80000, 20.
33.83000, 23.
33.86000, 19.
33.89000, 18.
33.92000, 15.
33.95000, 20.
33.98000, 23.
34.01000, 25.
34.04000, 27.
34.07000, 18.
34.10000, 16.
34.13000, 20.
34.16000, 28.
34.19000, 22.
34.22000, 21.
34.25000, 15.
34.28000, 22.
34.31000, 18.
34.34000, 13.
34.37000, 25.
34.40000, 19.
34.43000, 11.
34.46000, 21.
34.49000, 20.
34.52000, 12.
34.55000, 17.
34.58000, 21.
34.61000, 11.
34.64000, 20.
34.67000, 25.
34.70000, 17.
34.73000, 31.
34.76000, 27.
34.79000, 22.
34.82000, 19.
34.85000, 20.
34.88000, 11.
34.91000, 23.
34.94000, 12.
34.97000, 12.
35.00000, 15.
35.03000, 8.
35.06000, 13.
35.09000, 19.
35.12000, 16.
35.15000, 18.
35.18000, 13.
35.21000, 22.
35.24000, 18.
35.27000, 15.
35.30000, 15.
35.33000, 17.
35.36000, 18.
35.39000, 17.
35.42000, 14.
35.45000, 18.
35.48000, 22.
35.51000, 16.
35.54000, 17.
35.57000, 13.
35.60000, 16.
35.63000, 12.
35.66000, 15.
35.69000, 7.
35.72000, 16.
35.75000, 15.
35.78000, 15.
35.81000, 17.
35.84000, 11.
35.87000, 8.
35.90000, 16.
35.93000, 17.
35.96000, 14.
35.99000, 16.
36.02000, 16.
36.05000, 13.
36.08000, 11.
36.11000, 15.
36.14000, 16.
36.17000, 21.
36.20000, 13.
36.23000, 11.
36.26000, 13.
36.29000, 10.
36.32000, 17.
36.35000, 15.
36.38000, 14.
36.41000, 11.
36.44000, 16.
36.47000, 13.
36.50000, 19.
36.53000, 15.
36.56000, 9.
36.59000, 25.
36.62000, 15.
36.65000, 11.
36.68000, 9.
36.71000, 16.
36.74000, 9.
36.77000, 12.
36.80000, 10.
36.83000, 6.
36.86000, 11.
36.89000, 17.
36.92000, 10.
36.95000, 10.
36.98000, 8.
37.01000, 16.
37.04000, 12.
37.07000, 11.
37.10000, 12.
37.13000, 19.
37.16000, 10.
37.19000, 11.
37.22000, 9.
37.25000, 12.
37.28000, 14.
37.31000, 7.
37.34000, 9.
37.37000, 10.
37.40000, 13.
37.43000, 13.
37.46000, 9.
37.49000, 14.
37.52000, 10.
37.55000, 7.
37.58000, 11.
37.61000, 11.
37.64000, 12.
37.67000, 11.
37.70000, 5.
37.73000, 13.
37.76000, 7.
37.79000, 7.
37.82000, 8.
37.85000, 11.
37.88000, 15.
37.91000, 14.
37.94000, 10.
37.97000, 10.
38.00000, 7.
38.03000, 10.
38.06000, 12.
38.09000, 11.
38.12000, 7.
38.15000, 12.
38.18000, 9.
38.21000, 12.
38.24000, 10.
38.27000, 8.
38.30000, 9.
38.33000, 8.
38.36000, 8.
38.39000, 4.
38.42000, 7.
38.45000, 7.
38.48000, 11.
38.51000, 8.
38.54000, 10.
38.57000, 13.
38.60000, 3.
38.63000, 6.
38.66000, 5.
38.69000, 10.
38.72000, 7.
38.75000, 5.
38.78000, 9.
38.81000, 10.
38.84000, 3.
38.87000, 9.
38.90000, 6.
38.93000, 7.
38.96000, 5.
38.99000, 2.
39.02000, 8.
39.05000, 13.
39.08000, 6.
39.11000, 8.
39.14000, 7.
39.17000, 5.
39.20000, 6.
39.23000, 11.
39.26000, 6.
39.29000, 3.
39.32000, 5.
39.35000, 8.
39.38000, 5.
39.41000, 9.
39.44000, 9.
39.47000, 5.
39.50000, 13.
39.53000, 6.
39.56000, 5.
39.59000, 0.
39.62000, 4.
39.65000, 3.
39.68000, 4.
39.71000, 2.
39.74000, 4.
39.77000, 9.
39.80000, 7.
39.83000, 6.
39.86000, 4.
39.89000, 6.
39.92000, 6.
39.95000, 3.
39.98000, 5.
40.01000, 5.
40.04000, 5.
40.07000, 9.
40.10000, 6.
40.13000, 8.
40.16000, 6.
40.19000, 6.
40.22000, 5.
40.25000, 12.
40.28000, 3.
40.31000, 9.
40.34000, 8.
40.37000, 3.
40.40000, 0.
40.43000, 1.
40.46000, 6.
40.49000, 7.
40.52000, 3.
40.55000, 0.
#ENDOFDATA   :