File: sample_data/data/Spectrum value from standard/Till 1/Spectrum 2.txt
#FORMAT      : EMSA/MAS Spectral Data File
#VERSION     : 1.0
#TITLE       : Spectrum 2
#DATE        : 21-AUG-2025
#TIME        : 15:06
#OWNER       : XGT7200
#NPOINTS     : 4096.
#NCOLUMNS    : 1.
#XUNITS      : keV
#YUNITS      : counts
#DATATYPE    : XY
#XPERCHAN    : 0.0100000
#OFFSET      : -0.400000
#SIGNALTYPE  : EDS
#CHOFFSET    : 40.0000
#LIVETIME    : 30
#REALTIME    : 39.479
#BEAMKV      : 50.0000
#PROBECUR    : 695000.
#MAGCAM      : 100.000
#XTILTSTGE   : 0.0
#AZIMANGLE   : 0.0
#ELEVANGLE   : 45.0
#XPOSITION mm: 0.0000
#YPOSITION mm: 0.0000
#ZPOSITION mm: 0.0000
##OXINSTPT   : 4
##OXINSTSTROB: 72.06
#SPECTRUM    : Spectral Data Starts Here
-0.40000, 0.
-0.37000, 0.
-0.34000, 0.
-0.31000, 0.
-0.28000, 0.
-0.25000, 0.
-0.22000, 0.
-0.19000, 0.
-0.16000, 0.
-0.13000, 0.
-0.10000, 0.
-0.07000, 0.
-0.04000, 0.
-0.01000, 0.
0.02000, 0.
0.05000, 0.
0.08000, 0.
0.11000, 0.
0.14000, 0.
0.17000, 0.
0.20000, 0.
0.23000, 0.
0.26000, 0.
0.29000, 0.
0.32000, 0.
0.35000, 4.
0.38000, 9.
0.41000, 22.
0.44000, 38.
0.47000, 51.
0.50000, 49.
0.53000, 35.
0.56000, 41.
0.59000, 54.
0.62000, 32.
0.65000, 39.
0.68000, 45.
0.71000, 37.
0.74000, 43.
0.77000, 35.
0.80000, 34.
0.83000, 36.
0.86000, 42.
0.89000, 31.
0.92000, 29.
0.95000, 52.
0.98000, 35.
1.01000, 42.
1.04000, 60.
1.07000, 42.
1.10000, 41.
1.13000, 35.
1.16000, 34.
1.19000, 40.
1.22000, 71.
1.25000, 74.
1.28000, 60.
1.31000, 54.
1.34000, 41.
1.37000, 45.
1.40000, 95.
1.43000, 263.
1.46000, 582.
1.49000, 717.
1.52000, 679.
1.55000, 344.
1.58000, 153.
1.61000, 83.
1.64000, 298.
1.67000, 1211.
1.70000, 3240.
1.73000, 5708.
1.76000, 5616.
1.79000, 3584.
1.82000, 1568.
1.85000, 554.
1.88000, 199.
1.91000, 100.
1.94000, 61.
1.97000, 81.
2.00000, 91.
2.03000, 75.
2.06000, 63.
2.09000, 36.
2.12000, 30.
2.15000, 29.
2.18000, 27.
2.21000, 33.
2.24000, 27.
2.27000, 40.
2.30000, 62.
2.33000, 49.
2.36000, 50.
2.39000, 27.
2.42000, 28.
2.45000, 31.
2.48000, 31.
2.51000, 30.
2.54000, 37.
2.57000, 68.
2.60000, 100.
2.63000, 216.
2.66000, 323.
2.69000, 448.
2.72000, 426.
2.75000, 325.
2.78000, 214.
2.81000, 238.
2.84000, 238.
2.87000, 227.
2.90000, 181.
2.93000, 132.
2.96000, 72.
2.99000, 52.
3.02000, 47.
3.05000, 39.
3.08000, 28.
3.11000, 22.
3.14000, 45.
3.17000, 47.
3.20000, 78.
3.23000, 199.
3.26000, 381.
3.29000, 642.
3.32000, 730.
3.35000, 635.
3.38000, 323.
3.41000, 128.
3.44000, 82.
3.47000, 55.
3.50000, 66.
3.53000, 71.
3.56000, 138.
3.59000, 259.
3.62000, 512.
3.65000, 817.
3.68000, 1141.
3.71000, 1154.
3.74000, 801.
3.77000, 431.
3.80000, 147.
3.83000, 56.
3.86000, 19.
3.89000, 51.
3.92000, 54.
3.95000, 96.
3.98000, 182.
4.01000, 190.
4.04000, 189.
4.07000, 121.
4.10000, 85.
4.13000, 36.
4.16000, 35.
4.19000, 24.
4.22000, 21.
4.25000, 26.
4.28000, 31.
4.31000, 24.
4.34000, 41.
4.37000, 59.
4.40000, 108.
4.43000, 234.
4.46000, 389.
4.49000, 606.
4.52000, 605.
4.55000, 458.
4.58000, 273.
4.61000, 198.
4.64000, 113.
4.67000, 119.
4.70000, 101.
4.73000, 92.
4.76000, 54.
4.79000, 83.
4.82000, 86.
4.85000, 98.
4.88000, 128.
4.91000, 122.
4.94000, 162.
4.97000, 147.
5.00000, 109.
5.03000, 70.
5.06000, 60.
5.09000, 61.
5.12000, 54.
5.15000, 63.
5.18000, 52.
5.21000, 54.
5.24000, 51.
5.27000, 59.
5.30000, 55.
5.33000, 64.
5.36000, 52.
5.39000, 66.
5.42000, 72.
5.45000, 77.
5.48000, 73.
5.51000, 62.
5.54000, 61.
5.57000, 57.
5.60000, 66.
5.63000, 66.
5.66000, 57.
5.69000, 45.
5.72000, 68.
5.75000, 92.
5.78000, 107.
5.81000, 210.
5.84000, 328.
5.87000, 408.
5.90000, 467.
5.93000, 418.
5.96000, 315.
5.99000, 180.
6.02000, 105.
6.05000, 84.
6.08000, 73.
6.11000, 108.
6.14000, 117.
6.17000, 131.
6.20000, 249.
6.23000, 518.
6.26000, 1380.
6.29000, 3466.
6.32000, 7183.
6.35000, 11885.
6.38000, 15600.
6.41000, 16017.
6.44000, 13102.
6.47000, 8595.
6.50000, 4247.
6.53000, 1766.
6.56000, 669.
6.59000, 226.
6.62000, 146.
6.65000, 109.
6.68000, 115.
6.71000, 96.
6.74000, 99.
6.77000, 101.
6.80000, 122.
6.83000, 119.
6.86000, 162.
6.89000, 243.
6.92000, 425.
6.95000, 851.
6.98000, 1422.
7.01000, 2138.
7.04000, 2607.
7.07000, 2447.
7.10000, 2057.
7.13000, 1329.
7.16000, 747.
7.19000, 364.
7.22000, 147.
7.25000, 100.
7.28000, 76.
7.31000, 71.
7.34000, 62.
7.37000, 68.
7.40000, 65.
7.43000, 84.
7.46000, 83.
7.49000, 72.
7.52000, 75.
7.55000, 75.
7.58000, 79.
7.61000, 81.
7.64000, 71.
7.67000, 67.
7.70000, 71.
7.73000, 84.
7.76000, 100.
7.79000, 86.
7.82000, 74.
7.85000, 88.
7.88000, 92.
7.91000, 127.
7.94000, 113.
7.97000, 122.
8.00000, 128.
8.03000, 165.
8.06000, 154.
8.09000, 140.
8.12000, 152.
8.15000, 129.
8.18000, 143.
8.21000, 113.
8.24000, 112.
8.27000, 97.
8.30000, 101.
8.33000, 102.
8.36000, 106.
8.39000, 95.
8.42000, 111.
8.45000, 91.
8.48000, 120.
8.51000, 102.
8.54000, 137.
8.57000, 144.
8.60000, 152.
8.63000, 143.
8.66000, 172.
8.69000, 135.
8.72000, 115.
8.75000, 127.
8.78000, 115.
8.81000, 96.
8.84000, 117.
8.87000, 132.
8.90000, 128.
8.93000, 101.
8.96000, 134.
8.99000, 115.
9.02000, 106.
9.05000, 127.
9.08000, 111.
9.11000, 115.
9.14000, 130.
9.17000, 110.
9.20000, 123.
9.23000, 114.
9.26000, 132.
9.29000, 127.
9.32000, 140.
9.35000, 113.
9.38000, 126.
9.41000, 122.
9.44000, 136.
9.47000, 100.
9.50000, 122.
9.53000, 112.
9.56000, 126.
9.59000, 119.
9.62000, 109.
9.65000, 116.
9.68000, 137.
9.71000, 120.
9.74000, 116.
9.77000, 106.
9.80000, 111.
9.83000, 108.
9.86000, 132.
9.89000, 123.
9.92000, 120.
9.95000, 127.
9.98000, 134.
10.01000, 108.
10.04000, 130.
10.07000, 121.
10.10000, 120.
10.13000, 129.
10.16000, 134.
10.19000, 131.
10.22000, 131.
10.25000, 139.
10.28000, 113.
10.31000, 110.
10.34000, 120.
10.37000, 148.
10.40000, 126.
10.43000, 140.
10.46000, 124.
10.49000, 143.
10.52000, 133.
10.55000, 142.
10.58000, 139.
10.61000, 135.
10.64000, 149.
10.67000, 130.
10.70000, 116.
10.73000, 144.
10.76000, 128.
10.79000, 134.
10.82000, 121.
10.85000, 125.
10.88000, 109.
10.91000, 135.
10.94000, 111.
10.97000, 125.
11.00000, 120.
11.03000, 137.
11.06000, 128.
11.09000, 134.
11.12000, 144.
11.15000, 155.
11.18000, 141.
11.21000, 141.
11.24000, 135.
11.27000, 143.
11.30000, 140.
11.33000, 116.
11.36000, 115.
11.39000, 125.
11.42000, 147.
11.45000, 137.
11.48000, 136.
11.51000, 147.
11.54000, 136.
11.57000, 159.
11.60000, 136.
11.63000, 137.
11.66000, 137.
11.69000, 127.
11.72000, 141.
11.75000, 120.
11.78000, 135.
11.81000, 143.
11.84000, 131.
11.87000, 135.
11.90000, 136.
11.93000, 149.
11.96000, 142.
11.99000, 141.
12.02000, 146.
12.05000, 147.
12.08000, 137.
12.11000, 144.
12.14000, 146.
12.17000, 137.
12.20000, 136.
12.23000, 148.
12.26000, 135.
12.29000, 148.
12.32000, 176.
12.35000, 148.
12.38000, 135.
12.41000, 148.
12.44000, 142.
12.47000, 150.
12.50000, 145.
12.53000, 164.
12.56000, 151.
12.59000, 153.
12.62000, 140.
12.65000, 164.
12.68000, 171.
12.71000, 176.
12.74000, 180.
12.77000, 210.
12.80000, 198.
12.83000, 152.
12.86000, 179.
12.89000, 178.
12.92000, 141.
12.95000, 158.
12.98000, 156.
13.01000, 157.
13.04000, 162.
13.07000, 146.
13.10000, 146.
13.13000, 138.
13.16000, 172.
13.19000, 146.
13.22000, 164.
13.25000, 160.
13.28000, 188.
13.31000, 197.
13.34000, 198.
13.37000, 184.
13.40000, 217.
13.43000, 170.
13.46000, 177.
13.49000, 182.
13.52000, 146.
13.55000, 160.
13.58000, 145.
13.61000, 174.
13.64000, 154.
13.67000, 146.
13.70000, 165.
13.73000, 141.
13.76000, 119.
13.79000, 127.
13.82000, 165.
13.85000, 159.
13.88000, 154.
13.91000, 149.
13.94000, 182.
13.97000, 219.
14.00000, 258.
14.03000, 317.
14.06000, 370.
14.09000, 422.
14.12000, 416.
14.15000, 397.
14.18000, 389.
14.21000, 322.
14.24000, 247.
14.27000, 170.
14.30000, 176.
14.33000, 170.
14.36000, 156.
14.39000, 146.
14.42000, 155.
14.45000, 145.
14.48000, 155.
14.51000, 138.
14.54000, 155.
14.57000, 147.
14.60000, 154.
14.63000, 149.
14.66000, 127.
14.69000, 142.
14.72000, 136.
14.75000, 157.
14.78000, 173.
14.81000, 173.
14.84000, 182.
14.87000, 171.
14.90000, 176.
14.93000, 166.
14.96000, 186.
14.99000, 200.
15.02000, 172.
15.05000, 132.
15.08000, 131.
15.11000, 161.
15.14000, 135.
15.17000, 157.
15.20000, 131.
15.23000, 165.
15.26000, 151.
15.29000, 139.
15.32000, 146.
15.35000, 141.
15.38000, 154.
15.41000, 180.
15.44000, 140.
15.47000, 138.
15.50000, 187.
15.53000, 216.
15.56000, 252.
15.59000, 298.
15.62000, 380.
15.65000, 426.
15.68000, 542.
15.71000, 591.
15.74000, 593.
15.77000, 545.
15.80000, 510.
15.83000, 411.
15.86000, 349.
15.89000, 267.
15.92000, 230.
15.95000, 169.
15.98000, 170.
16.01000, 161.
16.04000, 161.
16.07000, 130.
16.10000, 136.
16.13000, 152.
16.16000, 148.
16.19000, 165.
16.22000, 162.
16.25000, 124.
16.28000, 158.
16.31000, 163.
16.34000, 141.
16.37000, 161.
16.40000, 150.
16.43000, 146.
16.46000, 136.
16.49000, 166.
16.52000, 143.
16.55000, 172.
16.58000, 140.
16.61000, 143.
16.64000, 177.
16.67000, 158.
16.70000, 136.
16.73000, 142.
16.76000, 130.
16.79000, 158.
16.82000, 145.
16.85000, 141.
16.88000, 138.
16.91000, 169.
16.94000, 141.
16.97000, 143.
17.00000, 131.
17.03000, 138.
17.06000, 168.
17.09000, 152.
17.12000, 125.
17.15000, 136.
17.18000, 164.
17.21000, 161.
17.24000, 150.
17.27000, 157.
17.30000, 160.
17.33000, 140.
17.36000, 174.
17.39000, 161.
17.42000, 157.
17.45000, 181.
17.48000, 169.
17.51000, 188.
17.54000, 229.
17.57000, 210.
17.60000, 246.
17.63000, 220.
17.66000, 228.
17.69000, 218.
17.72000, 244.
17.75000, 183.
17.78000, 225.
17.81000, 185.
17.84000, 192.
17.87000, 202.
17.90000, 205.
17.93000, 236.
17.96000, 235.
17.99000, 198.
18.02000, 219.
18.05000, 218.
18.08000, 240.
18.11000, 233.
18.14000, 248.
18.17000, 265.
18.20000, 261.
18.23000, 279.
18.26000, 267.
18.29000, 297.
18.32000, 344.
18.35000, 371.
18.38000, 386.
18.41000, 443.
18.44000, 482.
18.47000, 481.
18.50000, 562.
18.53000, 589.
18.56000, 628.
18.59000, 677.
18.62000, 729.
18.65000, 844.
18.68000, 782.
18.71000, 857.
18.74000, 797.
18.77000, 866.
18.80000, 846.
18.83000, 811.
18.86000, 840.
18.89000, 819.
18.92000, 796.
18.95000, 749.
18.98000, 698.
19.01000, 611.
19.04000, 587.
19.07000, 559.
19.10000, 476.
19.13000, 451.
19.16000, 451.
19.19000, 404.
19.22000, 375.
19.25000, 389.
19.28000, 322.
19.31000, 318.
19.34000, 305.
19.37000, 266.
19.40000, 249.
19.43000, 251.
19.46000, 208.
19.49000, 224.
19.52000, 208.
19.55000, 211.
19.58000, 170.
19.61000, 183.
19.64000, 164.
19.67000, 145.
19.70000, 149.
19.73000, 165.
19.76000, 145.
19.79000, 151.
19.82000, 161.
19.85000, 185.
19.88000, 208.
19.91000, 246.
19.94000, 246.
19.97000, 304.
20.00000, 373.
20.03000, 414.
20.06000, 501.
20.09000, 481.
20.12000, 488.
20.15000, 550.
20.18000, 496.
20.21000, 473.
20.24000, 419.
20.27000, 375.
20.30000, 313.
20.33000, 270.
20.36000, 212.
20.39000, 170.
20.42000, 157.
20.45000, 140.
20.48000, 155.
20.51000, 166.
20.54000, 155.
20.57000, 167.
20.60000, 154.
20.63000, 170.
20.66000, 179.
20.69000, 172.
20.72000, 169.
20.75000, 177.
20.78000, 198.
20.81000, 193.
20.84000, 234.
20.87000, 195.
20.90000, 235.
20.93000, 224.
20.96000, 216.
20.99000, 251.
21.02000, 215.
21.05000, 252.
21.08000, 212.
21.11000, 201.
21.14000, 240.
21.17000, 216.
21.20000, 235.
21.23000, 196.
21.26000, 199.
21.29000, 189.
21.32000, 162.
21.35000, 181.
21.38000, 157.
21.41000, 156.
21.44000, 137.
21.47000, 148.
21.50000, 147.
21.53000, 124.
21.56000, 138.
21.59000, 140.
21.62000, 132.
21.65000, 134.
21.68000, 105.
21.71000, 129.
21.74000, 111.
21.77000, 121.
21.80000, 98.
21.83000, 86.
21.86000, 104.
21.89000, 90.
21.92000, 95.
21.95000, 89.
21.98000, 103.
22.01000, 70.
22.04000, 98.
22.07000, 91.
22.10000, 93.
22.13000, 71.
22.16000, 101.
22.19000, 90.
22.22000, 74.
22.25000, 95.
22.28000, 81.
22.31000, 83.
22.34000, 77.
22.37000, 82.
22.40000, 85.
22.43000, 91.
22.46000, 85.
22.49000, 83.
22.52000, 84.
22.55000, 104.
22.58000, 106.
22.61000, 136.
22.64000, 119.
22.67000, 121.
22.70000, 140.
22.73000, 105.
22.76000, 109.
22.79000, 107.
22.82000, 104.
22.85000, 85.
22.88000, 87.
22.91000, 80.
22.94000, 80.
22.97000, 77.
23.00000, 70.
23.03000, 78.
23.06000, 77.
23.09000, 72.
23.12000, 73.
23.15000, 76.
23.18000, 76.
23.21000, 78.
23.24000, 71.
23.27000, 67.
23.30000, 72.
23.33000, 65.
23.36000, 66.
23.39000, 57.
23.42000, 69.
23.45000, 53.
23.48000, 92.
23.51000, 58.
23.54000, 75.
23.57000, 68.
23.60000, 58.
23.63000, 63.
23.66000, 66.
23.69000, 64.
23.72000, 59.
23.75000, 49.
23.78000, 69.
23.81000, 63.
23.84000, 75.
23.87000, 65.
23.90000, 75.
23.93000, 61.
23.96000, 78.
23.99000, 64.
24.02000, 48.
24.05000, 61.
24.08000, 51.
24.11000, 66.
24.14000, 71.
24.17000, 71.
24.20000, 56.
24.23000, 71.
24.26000, 58.
24.29000, 56.
24.32000, 54.
24.35000, 50.
24.38000, 66.
24.41000, 68.
24.44000, 62.
24.47000, 53.
24.50000, 65.
24.53000, 62.
24.56000, 56.
24.59000, 55.
24.62000, 61.
24.65000, 68.
24.68000, 70.
24.71000, 72.
24.74000, 55.
24.77000, 58.
24.80000, 70.
24.83000, 68.
24.86000, 71.
24.89000, 49.
24.92000, 69.
24.95000, 52.
24.98000, 52.
25.01000, 70.
25.04000, 72.
25.07000, 65.
25.10000, 59.
25.13000, 79.
25.16000, 64.
25.19000, 59.
25.22000, 49.
25.25000, 80.
25.28000, 43.
25.31000, 65.
25.34000, 75.
25.37000, 59.
25.40000, 63.
25.43000, 70.
25.46000, 48.
25.49000, 50.
25.52000, 42.
25.55000, 59.
25.58000, 56.
25.61000, 59.
25.64000, 46.
25.67000, 55.
25.70000, 47.
25.73000, 47.
25.76000, 63.
25.79000, 59.
25.82000, 47.
25.85000, 56.
25.88000, 50.
25.91000, 55.
25.94000, 61.
25.97000, 52.
26.00000, 47.
26.03000, 64.
26.06000, 48.
26.09000, 43.
26.12000, 54.
26.15000, 67.
26.18000, 45.
26.21000, 44.
26.24000, 48.
26.27000, 54.
26.30000, 38.
26.33000, 61.
26.36000, 54.
26.39000, 54.
26.42000, 56.
26.45000, 57.
26.48000, 53.
26.51000, 58.
26.54000, 54.
26.57000, 53.
26.60000, 46.
26.63000, 50.
26.66000, 41.
26.69000, 49.
26.72000, 59.
26.75000, 47.
26.78000, 49.
26.81000, 47.
26.84000, 44.
26.87000, 49.
26.90000, 47.
26.93000, 54.
26.96000, 51.
26.99000, 45.
27.02000, 56.
27.05000, 47.
27.08000, 57.
27.11000, 48.
27.14000, 41.
27.17000, 64.
27.20000, 54.
27.23000, 49.
27.26000, 43.
27.29000, 51.
27.32000, 45.
27.35000, 53.
27.38000, 54.
27.41000, 43.
27.44000, 48.
27.47000, 53.
27.50000, 60.
27.53000, 63.
27.56000, 51.
27.59000, 38.
27.62000, 46.
27.65000, 56.
27.68000, 51.
27.71000, 43.
27.74000, 48.
27.77000, 48.
27.80000, 43.
27.83000, 46.
27.86000, 41.
27.89000, 51.
27.92000, 56.
27.95000, 43.
27.98000, 37.
28.01000, 33.
28.04000, 43.
28.07000, 36.
28.10000, 50.
28.13000, 45.
28.16000, 46.
28.19000, 51.
28.22000, 43.
28.25000, 50.
28.28000, 39.
28.31000, 44.
28.34000, 42.
28.37000, 37.
28.40000, 35.
28.43000, 31.
28.46000, 35.
28.49000, 49.
28.52000, 48.
28.55000, 52.
28.58000, 42.
28.61000, 36.
28.64000, 37.
28.67000, 37.
28.70000, 39.
28.73000, 40.
28.76000, 36.
28.79000, 36.
28.82000, 39.
28.85000, 24.
28.88000, 52.
28.91000, 42.
28.94000, 40.
28.97000, 36.
29.00000, 44.
29.03000, 45.
29.06000, 43.
29.09000, 33.
29.12000, 39.
29.15000, 35.
29.18000, 51.
29.21000, 39.
29.24000, 44.
29.27000, 45.
29.30000, 50.
29.33000, 43.
29.36000, 41.
29.39000, 35.
29.42000, 32.
29.45000, 39.
29.48000, 19.
29.51000, 47.
29.54000, 50.
29.57000, 27.
29.60000, 26.
29.63000, 45.
29.66000, 34.
29.69000, 34.
29.72000, 27.
29.75000, 40.
29.78000, 36.
29.81000, 32.
29.84000, 35.
29.87000, 34.
29.90000, 32.
29.93000, 40.
29.96000, 43.
29.99000, 24.
30.02000, 25.
30.05000, 35.
30.08000, 21.
30.11000, 38.
30.14000, 32.
30.17000, 27.
30.20000, 29.
30.23000, 19.
30.26000, 31.
30.29000, 34.
30.32000, 33.
30.35000, 34.
30.38000, 21.
30.41000, 29.
30.44000, 32.
30.47000, 40.
30.50000, 36.
30.53000, 29.
30.56000, 24.
30.59000, 28.
30.62000, 29.
30.65000, 26.
30.68000, 37.
30.71000, 31.
30.74000, 38.
30.77000, 28.
30.80000, 28.
30.83000, 33.
30.86000, 34.
30.89000, 33.
30.92000, 26.
30.95000, 42.
30.98000, 21.
31.01000, 33.
31.04000, 20.
31.07000, 25.
31.10000, 33.
31.13000, 25.
31.16000, 27.
31.19000, 25.
31.22000, 29.
31.25000, 29.
31.28000, 26.
31.31000, 31.
31.34000, 32.
31.37000, 25.
31.40000, 39.
31.43000, 29.
31.46000, 40.
31.49000, 25.
31.52000, 23.
31.55000, 31.
31.58000, 18.
31.61000, 23.
31.64000, 28.
31.67000, 31.
31.70000, 28.
31.73000, 47.
31.76000, 25.
31.79000, 41.
31.82000, 32.
31.85000, 38.
31.88000, 32.
31.91000, 30.
31.94000, 30.
31.97000, 33.
32.00000, 27.
32.03000, 24.
32.06000, 27.
32.09000, 30.
32.12000, 24.
32.15000, 39.
32.18000, 26.
32.21000, 36.
32.24000, 30.
32.27000, 27.
32.30000, 28.
32.33000, 21.
32.36000, 26.
32.39000, 31.
32.42000, 18.
32.45000, 18.
32.48000, 22.
32.51000, 21.
32.54000, 17.
32.57000, 10.
32.60000, 26.
32.63000, 16.
32.66000, 17.
32.69000, 25.
32.72000, 16.
32.75000, 28.
32.78000, 27.
32.81000, 19.
32.84000, 16.
32.87000, 15.
32.90000, 24.
32.93000, 19.
32.96000, 23.
32.99000, 24.
33.02000, 23.
33.05000, 16.
33.08000, 17.
33.11000, 33.
33.14000, 25.
33.17000, 25.
33.20000, 24.
33.23000, 29.
33.26000, 18.
33.29000, 26.
33.32000, 14.
33.35000, 29.
33.38000, 21.
33.41000, 29.
33.44000, 18.
33.47000, 20.
33.50000, 18.
33.53000, 21.
33.56000, 20.
33.59000, 25.
33.62000, 31.
33.65000, 13.
33.68000, 21.
33.71000, 23.
33.74000, 18.
33.77000, 18.
33.80000, 19.
33.83000, 14.
33.86000, 20.
33.89000, 14.
33.92000, 19.
33.95000, 24.
33.98000, 16.
34.01000, 13.
34.04000, 27.
34.07000, 20.
34.10000, 14.
34.13000, 20.
34.16000, 25.
34.19000, 23.
34.22000, 17.
34.25000, 14.
34.28000, 16.
34.31000, 13.
34.34000, 20.
34.37000, 25.
34.40000, 19.
34.43000, 13.
34.46000, 13.
34.49000, 20.
34.52000, 22.
34.55000, 14.
34.58000, 13.
34.61000, 17.
34.64000, 21.
34.67000, 22.
34.70000, 14.
34.73000, 9.
34.76000, 15.
34.79000, 11.
34.82000, 16.
34.85000, 14.
34.88000, 13.
34.91000, 16.
34.94000, 14.
34.97000, 19.
35.00000, 14.
35.03000, 17.
35.06000, 13.
35.09000, 21.
35.12000, 18.
35.15000, 12.
35.18000, 13.
35.21000, 13.
35.24000, 17.
35.27000, 15.
35.30000, 12.
35.33000, 13.
35.36000, 18.
35.39000, 16.
35.42000, 10.
35.45000, 21.
35.48000, 23.
35.51000, 13.
35.54000, 12.
35.57000, 21.
35.60000, 8.
35.63000, 13.
35.66000, 13.
35.69000, 8.
35.72000, 10.
35.75000, 15.
35.78000, 16.
35.81000, 14.
35.84000, 15.
35.87000, 19.
35.90000, 12.
35.93000, 14.
35.96000, 12.
35.99000, 12.
36.02000, 16.
36.05000, 8.
36.08000, 16.
36.11000, 20.
36.14000, 22.
36.17000, 21.
36.20000, 11.
36.23000, 21.
36.26000, 12.
36.29000, 8.
36.32000, 18.
36.35000, 15.
36.38000, 9.
36.41000, 18.
36.44000, 16.
36.47000, 14.
36.50000, 12.
36.53000, 17.
36.56000, 12.
36.59000, 8.
36.62000, 15.
36.65000, 19.
36.68000, 15.
36.71000, 11.
36.74000, 10.
36.77000, 19.
36.80000, 7.
36.83000, 15.
36.86000, 17.
36.89000, 15.
36.92000, 10.
36.95000, 11.
36.98000, 12.
37.01000, 7.
37.04000, 12.
37.07000, 10.
37.10000, 10.
37.13000, 21.
37.16000, 11.
37.19000, 10.
37.22000, 9.
37.25000, 11.
37.28000, 7.
37.31000, 12.
37.34000, 13.
37.37000, 11.
37.40000, 8.
37.43000, 14.
37.46000, 17.
37.49000, 6.
37.52000, 9.
37.55000, 5.
37.58000, 13.
37.61000, 13.
37.64000, 9.
37.67000, 7.
37.70000, 12.
37.73000, 9.
37.76000, 6.
37.79000, 12.
37.82000, 5.
37.85000, 5.
37.88000, 6.
37.91000, 9.
37.94000, 5.
37.97000, 8.
38.00000, 7.
38.03000, 4.
38.06000, 11.
38.09000, 8.
38.12000, 4.
38.15000, 6.
38.18000, 6.
38.21000, 7.
38.24000, 8.
38.27000, 11.
38.30000, 7.
38.33000, 11.
38.36000, 8.
38.39000, 7.
38.42000, 8.
38.45000, 8.
38.48000, 11.
38.51000, 2.
38.54000, 9.
38.57000, 6.
38.60000, 3.
38.63000, 5.
38.66000, 9.
38.69000, 7.
38.72000, 5.
38.75000, 6.
38.78000, 7.
38.81000, 12.
38.84000, 5.
38.87000, 6.
38.90000, 6.
38.93000, 10.
38.96000, 9.
38.99000, 5.
39.02000, 7.
39.05000, 4.
39.08000, 8.
39.11000, 4.
39.14000, 4.
39.17000, 12.
39.20000, 2.
39.23000, 7.
39.26000, 6.
39.29000, 7.
39.32000, 6.
39.35000, 10.
39.38000, 3.
39.41000, 7.
39.44000, 6.
39.47000, 6.
39.50000, 2.
39.53000, 6.
39.56000, 11.
39.59000, 6.
39.62000, 4.
39.65000, 2.
39.68000, 7.
39.71000, 14.
39.74000, 4.
39.77000, 5.
39.80000, 2.
39.83000, 7.
39.86000, 1.
39.89000, 6.
39.92000, 6.
39.95000, 6.
39.98000, 5.
40.01000, 4.
40.04000, 6.
40.07000, 6.
40.10000, 6.
40.13000, 6.
40.16000, 6.
40.19000, 4.
40.22000, 4.
40.25000, 5.
40.28000, 4.
40.31000, 3.
40.34000, 2.
40.37000, 4.
40.40000, 5.
40.43000, 1.
40.46000, 4.
40.49000, 3.
40.52000, 4.
40.55000, 0.
#ENDOFDATA   :