File: sample_data/data/Spectrum value from standard/LKSD1/Spectrum 9.txt
#FORMAT      : EMSA/MAS Spectral Data File
#VERSION     : 1.0
#TITLE       : Spectrum 9
#DATE        : 21-AUG-2025
#TIME        : 15:13
#OWNER       : XGT7200
#NPOINTS     : 4096.
#NCOLUMNS    : 1.
#XUNITS      : keV
#YUNITS      : counts
#DATATYPE    : XY
#XPERCHAN    : 0.0100000
#OFFSET      : -0.400000
#SIGNALTYPE  : EDS
#CHOFFSET    : 40.0000
#LIVETIME    : 30
#REALTIME    : 39.7691
#BEAMKV      : 50.0000
#PROBECUR    : 719000.
#MAGCAM      : 100.000
#XTILTSTGE   : 0.0
#AZIMANGLE   : 0.0
#ELEVANGLE   : 45.0
#XPOSITION mm: 0.0000
#YPOSITION mm: 0.0000
#ZPOSITION mm: 0.0000
##OXINSTPT   : 4
##OXINSTSTROB: 71.91
#SPECTRUM    : Spectral Data Starts Here
-0.40000, 0.
-0.37000, 0.
-0.34000, 0.
-0.31000, 0.
-0.28000, 0.
-0.25000, 0.
-0.22000, 0.
-0.19000, 0.
-0.16000, 0.
-0.13000, 0.
-0.10000, 0.
-0.07000, 0.
-0.04000, 0.
-0.01000, 0.
0.02000, 0.
0.05000, 0.
0.08000, 0.
0.11000, 0.
0.14000, 0.
0.17000, 0.
0.20000, 0.
0.23000, 0.
0.26000, 0.
0.29000, 0.
0.32000, 0.
0.35000, 2.
0.38000, 9.
0.41000, 32.
0.44000, 46.
0.47000, 36.
0.50000, 63.
0.53000, 65.
0.56000, 68.
0.59000, 70.
0.62000, 67.
0.65000, 59.
0.68000, 51.
0.71000, 35.
0.74000, 44.
0.77000, 36.
0.80000, 41.
0.83000, 46.
0.86000, 51.
0.89000, 43.
0.92000, 47.
0.95000, 53.
0.98000, 29.
1.01000, 51.
1.04000, 54.
1.07000, 72.
1.10000, 51.
1.13000, 52.
1.16000, 53.
1.19000, 52.
1.22000, 67.
1.25000, 76.
1.28000, 60.
1.31000, 47.
1.34000, 39.
1.37000, 42.
1.40000, 76.
1.43000, 159.
1.46000, 336.
1.49000, 438.
1.52000, 349.
1.55000, 196.
1.58000, 91.
1.61000, 97.
1.64000, 250.
1.67000, 932.
1.70000, 2667.
1.73000, 4390.
1.76000, 4568.
1.79000, 2741.
1.82000, 1240.
1.85000, 434.
1.88000, 202.
1.91000, 146.
1.94000, 133.
1.97000, 139.
2.00000, 95.
2.03000, 68.
2.06000, 66.
2.09000, 44.
2.12000, 34.
2.15000, 61.
2.18000, 81.
2.21000, 189.
2.24000, 513.
2.27000, 1069.
2.30000, 1557.
2.33000, 1412.
2.36000, 894.
2.39000, 434.
2.42000, 176.
2.45000, 157.
2.48000, 148.
2.51000, 125.
2.54000, 76.
2.57000, 92.
2.60000, 121.
2.63000, 252.
2.66000, 381.
2.69000, 523.
2.72000, 466.
2.75000, 404.
2.78000, 297.
2.81000, 331.
2.84000, 358.
2.87000, 336.
2.90000, 262.
2.93000, 167.
2.96000, 114.
2.99000, 85.
3.02000, 88.
3.05000, 60.
3.08000, 42.
3.11000, 37.
3.14000, 41.
3.17000, 48.
3.20000, 66.
3.23000, 133.
3.26000, 261.
3.29000, 387.
3.32000, 485.
3.35000, 395.
3.38000, 224.
3.41000, 131.
3.44000, 65.
3.47000, 68.
3.50000, 77.
3.53000, 145.
3.56000, 392.
3.59000, 990.
3.62000, 2606.
3.65000, 5145.
3.68000, 6983.
3.71000, 7079.
3.74000, 4866.
3.77000, 2590.
3.80000, 908.
3.83000, 257.
3.86000, 122.
3.89000, 137.
3.92000, 232.
3.95000, 522.
3.98000, 875.
4.01000, 1082.
4.04000, 1011.
4.07000, 662.
4.10000, 305.
4.13000, 126.
4.16000, 69.
4.19000, 33.
4.22000, 28.
4.25000, 26.
4.28000, 28.
4.31000, 26.
4.34000, 37.
4.37000, 34.
4.40000, 70.
4.43000, 131.
4.46000, 186.
4.49000, 291.
4.52000, 324.
4.55000, 246.
4.58000, 170.
4.61000, 109.
4.64000, 78.
4.67000, 68.
4.70000, 75.
4.73000, 57.
4.76000, 48.
4.79000, 63.
4.82000, 73.
4.85000, 57.
4.88000, 76.
4.91000, 96.
4.94000, 83.
4.97000, 90.
5.00000, 71.
5.03000, 44.
5.06000, 46.
5.09000, 35.
5.12000, 50.
5.15000, 47.
5.18000, 36.
5.21000, 47.
5.24000, 49.
5.27000, 51.
5.30000, 47.
5.33000, 59.
5.36000, 77.
5.39000, 65.
5.42000, 67.
5.45000, 71.
5.48000, 61.
5.51000, 61.
5.54000, 60.
5.57000, 50.
5.60000, 45.
5.63000, 74.
5.66000, 59.
5.69000, 56.
5.72000, 67.
5.75000, 61.
5.78000, 75.
5.81000, 118.
5.84000, 169.
5.87000, 245.
5.90000, 256.
5.93000, 234.
5.96000, 197.
5.99000, 105.
6.02000, 80.
6.05000, 74.
6.08000, 75.
6.11000, 68.
6.14000, 81.
6.17000, 113.
6.20000, 157.
6.23000, 297.
6.26000, 900.
6.29000, 2195.
6.32000, 4254.
6.35000, 7316.
6.38000, 9421.
6.41000, 9796.
6.44000, 8028.
6.47000, 5119.
6.50000, 2586.
6.53000, 1174.
6.56000, 428.
6.59000, 179.
6.62000, 101.
6.65000, 103.
6.68000, 103.
6.71000, 94.
6.74000, 91.
6.77000, 109.
6.80000, 91.
6.83000, 119.
6.86000, 149.
6.89000, 207.
6.92000, 322.
6.95000, 539.
6.98000, 906.
7.01000, 1349.
7.04000, 1671.
7.07000, 1603.
7.10000, 1253.
7.13000, 833.
7.16000, 468.
7.19000, 253.
7.22000, 147.
7.25000, 86.
7.28000, 73.
7.31000, 80.
7.34000, 66.
7.37000, 85.
7.40000, 71.
7.43000, 77.
7.46000, 86.
7.49000, 82.
7.52000, 103.
7.55000, 72.
7.58000, 63.
7.61000, 82.
7.64000, 80.
7.67000, 81.
7.70000, 86.
7.73000, 78.
7.76000, 80.
7.79000, 77.
7.82000, 74.
7.85000, 83.
7.88000, 82.
7.91000, 100.
7.94000, 107.
7.97000, 110.
8.00000, 129.
8.03000, 139.
8.06000, 130.
8.09000, 138.
8.12000, 142.
8.15000, 119.
8.18000, 110.
8.21000, 133.
8.24000, 128.
8.27000, 112.
8.30000, 102.
8.33000, 98.
8.36000, 95.
8.39000, 122.
8.42000, 111.
8.45000, 138.
8.48000, 144.
8.51000, 149.
8.54000, 209.
8.57000, 272.
8.60000, 309.
8.63000, 340.
8.66000, 304.
8.69000, 271.
8.72000, 208.
8.75000, 165.
8.78000, 140.
8.81000, 122.
8.84000, 133.
8.87000, 124.
8.90000, 115.
8.93000, 100.
8.96000, 133.
8.99000, 122.
9.02000, 125.
9.05000, 115.
9.08000, 127.
9.11000, 131.
9.14000, 134.
9.17000, 162.
9.20000, 143.
9.23000, 159.
9.26000, 147.
9.29000, 144.
9.32000, 157.
9.35000, 140.
9.38000, 157.
9.41000, 156.
9.44000, 143.
9.47000, 154.
9.50000, 141.
9.53000, 158.
9.56000, 179.
9.59000, 164.
9.62000, 163.
9.65000, 160.
9.68000, 130.
9.71000, 134.
9.74000, 135.
9.77000, 125.
9.80000, 131.
9.83000, 143.
9.86000, 133.
9.89000, 133.
9.92000, 159.
9.95000, 136.
9.98000, 138.
10.01000, 163.
10.04000, 154.
10.07000, 155.
10.10000, 124.
10.13000, 134.
10.16000, 154.
10.19000, 141.
10.22000, 151.
10.25000, 141.
10.28000, 151.
10.31000, 135.
10.34000, 128.
10.37000, 165.
10.40000, 142.
10.43000, 170.
10.46000, 172.
10.49000, 194.
10.52000, 223.
10.55000, 195.
10.58000, 184.
10.61000, 179.
10.64000, 160.
10.67000, 159.
10.70000, 131.
10.73000, 134.
10.76000, 148.
10.79000, 161.
10.82000, 146.
10.85000, 156.
10.88000, 142.
10.91000, 164.
10.94000, 162.
10.97000, 148.
11.00000, 172.
11.03000, 157.
11.06000, 164.
11.09000, 178.
11.12000, 177.
11.15000, 172.
11.18000, 154.
11.21000, 163.
11.24000, 169.
11.27000, 164.
11.30000, 178.
11.33000, 163.
11.36000, 169.
11.39000, 180.
11.42000, 155.
11.45000, 164.
11.48000, 172.
11.51000, 149.
11.54000, 158.
11.57000, 161.
11.60000, 157.
11.63000, 196.
11.66000, 179.
11.69000, 151.
11.72000, 171.
11.75000, 167.
11.78000, 194.
11.81000, 173.
11.84000, 144.
11.87000, 163.
11.90000, 170.
11.93000, 167.
11.96000, 176.
11.99000, 168.
12.02000, 147.
12.05000, 167.
12.08000, 143.
12.11000, 159.
12.14000, 160.
12.17000, 174.
12.20000, 190.
12.23000, 183.
12.26000, 152.
12.29000, 180.
12.32000, 180.
12.35000, 167.
12.38000, 174.
12.41000, 164.
12.44000, 190.
12.47000, 158.
12.50000, 162.
12.53000, 188.
12.56000, 178.
12.59000, 201.
12.62000, 189.
12.65000, 202.
12.68000, 202.
12.71000, 192.
12.74000, 191.
12.77000, 206.
12.80000, 183.
12.83000, 166.
12.86000, 199.
12.89000, 197.
12.92000, 174.
12.95000, 188.
12.98000, 166.
13.01000, 175.
13.04000, 197.
13.07000, 169.
13.10000, 188.
13.13000, 166.
13.16000, 155.
13.19000, 177.
13.22000, 191.
13.25000, 164.
13.28000, 200.
13.31000, 214.
13.34000, 195.
13.37000, 186.
13.40000, 203.
13.43000, 213.
13.46000, 215.
13.49000, 175.
13.52000, 184.
13.55000, 174.
13.58000, 174.
13.61000, 208.
13.64000, 178.
13.67000, 175.
13.70000, 171.
13.73000, 156.
13.76000, 174.
13.79000, 179.
13.82000, 177.
13.85000, 172.
13.88000, 185.
13.91000, 205.
13.94000, 230.
13.97000, 244.
14.00000, 290.
14.03000, 349.
14.06000, 403.
14.09000, 433.
14.12000, 441.
14.15000, 474.
14.18000, 406.
14.21000, 373.
14.24000, 315.
14.27000, 247.
14.30000, 233.
14.33000, 198.
14.36000, 188.
14.39000, 161.
14.42000, 162.
14.45000, 161.
14.48000, 179.
14.51000, 175.
14.54000, 159.
14.57000, 195.
14.60000, 171.
14.63000, 174.
14.66000, 171.
14.69000, 184.
14.72000, 157.
14.75000, 166.
14.78000, 179.
14.81000, 187.
14.84000, 208.
14.87000, 207.
14.90000, 197.
14.93000, 196.
14.96000, 211.
14.99000, 206.
15.02000, 205.
15.05000, 186.
15.08000, 154.
15.11000, 161.
15.14000, 177.
15.17000, 168.
15.20000, 192.
15.23000, 152.
15.26000, 181.
15.29000, 163.
15.32000, 156.
15.35000, 165.
15.38000, 172.
15.41000, 171.
15.44000, 149.
15.47000, 182.
15.50000, 164.
15.53000, 182.
15.56000, 214.
15.59000, 203.
15.62000, 243.
15.65000, 222.
15.68000, 271.
15.71000, 287.
15.74000, 263.
15.77000, 265.
15.80000, 286.
15.83000, 279.
15.86000, 234.
15.89000, 215.
15.92000, 211.
15.95000, 225.
15.98000, 173.
16.01000, 191.
16.04000, 196.
16.07000, 195.
16.10000, 179.
16.13000, 181.
16.16000, 160.
16.19000, 202.
16.22000, 202.
16.25000, 157.
16.28000, 150.
16.31000, 169.
16.34000, 166.
16.37000, 165.
16.40000, 144.
16.43000, 190.
16.46000, 179.
16.49000, 166.
16.52000, 161.
16.55000, 192.
16.58000, 181.
16.61000, 170.
16.64000, 163.
16.67000, 189.
16.70000, 170.
16.73000, 147.
16.76000, 168.
16.79000, 207.
16.82000, 183.
16.85000, 174.
16.88000, 157.
16.91000, 180.
16.94000, 176.
16.97000, 162.
17.00000, 181.
17.03000, 189.
17.06000, 191.
17.09000, 186.
17.12000, 170.
17.15000, 198.
17.18000, 157.
17.21000, 160.
17.24000, 189.
17.27000, 174.
17.30000, 214.
17.33000, 195.
17.36000, 208.
17.39000, 183.
17.42000, 174.
17.45000, 174.
17.48000, 178.
17.51000, 234.
17.54000, 214.
17.57000, 201.
17.60000, 211.
17.63000, 224.
17.66000, 215.
17.69000, 209.
17.72000, 204.
17.75000, 209.
17.78000, 209.
17.81000, 223.
17.84000, 210.
17.87000, 217.
17.90000, 245.
17.93000, 250.
17.96000, 250.
17.99000, 222.
18.02000, 245.
18.05000, 265.
18.08000, 282.
18.11000, 303.
18.14000, 252.
18.17000, 315.
18.20000, 316.
18.23000, 331.
18.26000, 347.
18.29000, 348.
18.32000, 381.
18.35000, 449.
18.38000, 437.
18.41000, 509.
18.44000, 512.
18.47000, 605.
18.50000, 627.
18.53000, 758.
18.56000, 768.
18.59000, 864.
18.62000, 901.
18.65000, 983.
18.68000, 993.
18.71000, 1061.
18.74000, 1077.
18.77000, 1062.
18.80000, 1110.
18.83000, 1062.
18.86000, 1083.
18.89000, 1023.
18.92000, 974.
18.95000, 938.
18.98000, 894.
19.01000, 821.
19.04000, 785.
19.07000, 738.
19.10000, 682.
19.13000, 618.
19.16000, 548.
19.19000, 509.
19.22000, 486.
19.25000, 421.
19.28000, 356.
19.31000, 349.
19.34000, 334.
19.37000, 327.
19.40000, 329.
19.43000, 312.
19.46000, 214.
19.49000, 250.
19.52000, 227.
19.55000, 260.
19.58000, 231.
19.61000, 216.
19.64000, 233.
19.67000, 234.
19.70000, 192.
19.73000, 195.
19.76000, 223.
19.79000, 193.
19.82000, 201.
19.85000, 220.
19.88000, 205.
19.91000, 255.
19.94000, 322.
19.97000, 383.
20.00000, 417.
20.03000, 483.
20.06000, 493.
20.09000, 611.
20.12000, 620.
20.15000, 602.
20.18000, 596.
20.21000, 518.
20.24000, 484.
20.27000, 456.
20.30000, 378.
20.33000, 278.
20.36000, 234.
20.39000, 215.
20.42000, 217.
20.45000, 197.
20.48000, 166.
20.51000, 176.
20.54000, 179.
20.57000, 173.
20.60000, 220.
20.63000, 200.
20.66000, 216.
20.69000, 198.
20.72000, 230.
20.75000, 247.
20.78000, 232.
20.81000, 266.
20.84000, 263.
20.87000, 289.
20.90000, 232.
20.93000, 296.
20.96000, 272.
20.99000, 294.
21.02000, 275.
21.05000, 280.
21.08000, 270.
21.11000, 271.
21.14000, 292.
21.17000, 254.
21.20000, 272.
21.23000, 231.
21.26000, 216.
21.29000, 192.
21.32000, 214.
21.35000, 230.
21.38000, 223.
21.41000, 212.
21.44000, 202.
21.47000, 155.
21.50000, 162.
21.53000, 160.
21.56000, 168.
21.59000, 128.
21.62000, 136.
21.65000, 135.
21.68000, 132.
21.71000, 133.
21.74000, 120.
21.77000, 138.
21.80000, 135.
21.83000, 107.
21.86000, 110.
21.89000, 110.
21.92000, 125.
21.95000, 121.
21.98000, 104.
22.01000, 111.
22.04000, 94.
22.07000, 103.
22.10000, 92.
22.13000, 103.
22.16000, 101.
22.19000, 106.
22.22000, 102.
22.25000, 97.
22.28000, 92.
22.31000, 92.
22.34000, 101.
22.37000, 100.
22.40000, 84.
22.43000, 102.
22.46000, 93.
22.49000, 105.
22.52000, 105.
22.55000, 108.
22.58000, 158.
22.61000, 165.
22.64000, 165.
22.67000, 158.
22.70000, 153.
22.73000, 151.
22.76000, 134.
22.79000, 130.
22.82000, 109.
22.85000, 108.
22.88000, 94.
22.91000, 92.
22.94000, 84.
22.97000, 89.
23.00000, 91.
23.03000, 91.
23.06000, 87.
23.09000, 90.
23.12000, 89.
23.15000, 96.
23.18000, 100.
23.21000, 82.
23.24000, 84.
23.27000, 78.
23.30000, 76.
23.33000, 84.
23.36000, 69.
23.39000, 73.
23.42000, 74.
23.45000, 71.
23.48000, 78.
23.51000, 68.
23.54000, 74.
23.57000, 73.
23.60000, 68.
23.63000, 86.
23.66000, 71.
23.69000, 79.
23.72000, 71.
23.75000, 76.
23.78000, 75.
23.81000, 83.
23.84000, 67.
23.87000, 75.
23.90000, 65.
23.93000, 74.
23.96000, 62.
23.99000, 72.
24.02000, 91.
24.05000, 81.
24.08000, 69.
24.11000, 85.
24.14000, 72.
24.17000, 74.
24.20000, 59.
24.23000, 74.
24.26000, 76.
24.29000, 76.
24.32000, 71.
24.35000, 68.
24.38000, 80.
24.41000, 86.
24.44000, 82.
24.47000, 77.
24.50000, 55.
24.53000, 77.
24.56000, 71.
24.59000, 96.
24.62000, 83.
24.65000, 76.
24.68000, 82.
24.71000, 73.
24.74000, 80.
24.77000, 78.
24.80000, 74.
24.83000, 72.
24.86000, 82.
24.89000, 76.
24.92000, 90.
24.95000, 75.
24.98000, 54.
25.01000, 106.
25.04000, 87.
25.07000, 67.
25.10000, 94.
25.13000, 73.
25.16000, 77.
25.19000, 86.
25.22000, 80.
25.25000, 83.
25.28000, 66.
25.31000, 68.
25.34000, 86.
25.37000, 72.
25.40000, 69.
25.43000, 75.
25.46000, 63.
25.49000, 56.
25.52000, 79.
25.55000, 69.
25.58000, 68.
25.61000, 66.
25.64000, 54.
25.67000, 70.
25.70000, 71.
25.73000, 80.
25.76000, 60.
25.79000, 64.
25.82000, 47.
25.85000, 60.
25.88000, 66.
25.91000, 60.
25.94000, 63.
25.97000, 62.
26.00000, 68.
26.03000, 78.
26.06000, 64.
26.09000, 52.
26.12000, 54.
26.15000, 57.
26.18000, 58.
26.21000, 62.
26.24000, 55.
26.27000, 67.
26.30000, 58.
26.33000, 70.
26.36000, 53.
26.39000, 45.
26.42000, 66.
26.45000, 43.
26.48000, 60.
26.51000, 56.
26.54000, 73.
26.57000, 53.
26.60000, 44.
26.63000, 69.
26.66000, 47.
26.69000, 59.
26.72000, 64.
26.75000, 49.
26.78000, 57.
26.81000, 62.
26.84000, 53.
26.87000, 71.
26.90000, 59.
26.93000, 66.
26.96000, 81.
26.99000, 41.
27.02000, 48.
27.05000, 49.
27.08000, 69.
27.11000, 62.
27.14000, 65.
27.17000, 62.
27.20000, 56.
27.23000, 55.
27.26000, 45.
27.29000, 61.
27.32000, 58.
27.35000, 67.
27.38000, 67.
27.41000, 57.
27.44000, 48.
27.47000, 53.
27.50000, 67.
27.53000, 67.
27.56000, 58.
27.59000, 66.
27.62000, 52.
27.65000, 53.
27.68000, 65.
27.71000, 60.
27.74000, 52.
27.77000, 57.
27.80000, 50.
27.83000, 57.
27.86000, 54.
27.89000, 52.
27.92000, 45.
27.95000, 38.
27.98000, 48.
28.01000, 47.
28.04000, 32.
28.07000, 54.
28.10000, 38.
28.13000, 47.
28.16000, 40.
28.19000, 48.
28.22000, 46.
28.25000, 47.
28.28000, 38.
28.31000, 60.
28.34000, 49.
28.37000, 56.
28.40000, 53.
28.43000, 53.
28.46000, 47.
28.49000, 37.
28.52000, 46.
28.55000, 52.
28.58000, 57.
28.61000, 53.
28.64000, 54.
28.67000, 54.
28.70000, 49.
28.73000, 38.
28.76000, 42.
28.79000, 43.
28.82000, 45.
28.85000, 50.
28.88000, 50.
28.91000, 42.
28.94000, 40.
28.97000, 47.
29.00000, 42.
29.03000, 41.
29.06000, 55.
29.09000, 34.
29.12000, 51.
29.15000, 34.
29.18000, 38.
29.21000, 51.
29.24000, 48.
29.27000, 44.
29.30000, 34.
29.33000, 57.
29.36000, 38.
29.39000, 42.
29.42000, 42.
29.45000, 37.
29.48000, 44.
29.51000, 45.
29.54000, 31.
29.57000, 35.
29.60000, 49.
29.63000, 33.
29.66000, 46.
29.69000, 39.
29.72000, 28.
29.75000, 43.
29.78000, 33.
29.81000, 51.
29.84000, 38.
29.87000, 34.
29.90000, 34.
29.93000, 40.
29.96000, 40.
29.99000, 34.
30.02000, 37.
30.05000, 34.
30.08000, 37.
30.11000, 43.
30.14000, 40.
30.17000, 33.
30.20000, 39.
30.23000, 36.
30.26000, 35.
30.29000, 37.
30.32000, 32.
30.35000, 36.
30.38000, 35.
30.41000, 36.
30.44000, 34.
30.47000, 42.
30.50000, 35.
30.53000, 35.
30.56000, 39.
30.59000, 43.
30.62000, 39.
30.65000, 40.
30.68000, 27.
30.71000, 36.
30.74000, 49.
30.77000, 42.
30.80000, 40.
30.83000, 42.
30.86000, 27.
30.89000, 41.
30.92000, 35.
30.95000, 38.
30.98000, 38.
31.01000, 37.
31.04000, 44.
31.07000, 40.
31.10000, 28.
31.13000, 38.
31.16000, 30.
31.19000, 32.
31.22000, 24.
31.25000, 35.
31.28000, 37.
31.31000, 33.
31.34000, 25.
31.37000, 26.
31.40000, 26.
31.43000, 34.
31.46000, 41.
31.49000, 38.
31.52000, 35.
31.55000, 27.
31.58000, 41.
31.61000, 35.
31.64000, 28.
31.67000, 36.
31.70000, 29.
31.73000, 36.
31.76000, 39.
31.79000, 40.
31.82000, 35.
31.85000, 31.
31.88000, 34.
31.91000, 38.
31.94000, 29.
31.97000, 33.
32.00000, 37.
32.03000, 35.
32.06000, 28.
32.09000, 41.
32.12000, 50.
32.15000, 36.
32.18000, 32.
32.21000, 29.
32.24000, 36.
32.27000, 34.
32.30000, 34.
32.33000, 25.
32.36000, 28.
32.39000, 32.
32.42000, 25.
32.45000, 32.
32.48000, 29.
32.51000, 39.
32.54000, 35.
32.57000, 28.
32.60000, 29.
32.63000, 21.
32.66000, 27.
32.69000, 24.
32.72000, 23.
32.75000, 31.
32.78000, 36.
32.81000, 24.
32.84000, 18.
32.87000, 37.
32.90000, 24.
32.93000, 30.
32.96000, 29.
32.99000, 27.
33.02000, 25.
33.05000, 23.
33.08000, 24.
33.11000, 32.
33.14000, 17.
33.17000, 32.
33.20000, 29.
33.23000, 23.
33.26000, 27.
33.29000, 21.
33.32000, 27.
33.35000, 28.
33.38000, 24.
33.41000, 37.
33.44000, 29.
33.47000, 32.
33.50000, 29.
33.53000, 23.
33.56000, 29.
33.59000, 17.
33.62000, 20.
33.65000, 17.
33.68000, 35.
33.71000, 22.
33.74000, 29.
33.77000, 16.
33.80000, 26.
33.83000, 22.
33.86000, 28.
33.89000, 22.
33.92000, 27.
33.95000, 22.
33.98000, 29.
34.01000, 23.
34.04000, 23.
34.07000, 22.
34.10000, 19.
34.13000, 22.
34.16000, 23.
34.19000, 19.
34.22000, 23.
34.25000, 16.
34.28000, 21.
34.31000, 15.
34.34000, 18.
34.37000, 20.
34.40000, 22.
34.43000, 36.
34.46000, 22.
34.49000, 15.
34.52000, 15.
34.55000, 23.
34.58000, 16.
34.61000, 29.
34.64000, 24.
34.67000, 28.
34.70000, 18.
34.73000, 19.
34.76000, 15.
34.79000, 22.
34.82000, 21.
34.85000, 18.
34.88000, 19.
34.91000, 20.
34.94000, 15.
34.97000, 15.
35.00000, 16.
35.03000, 23.
35.06000, 17.
35.09000, 21.
35.12000, 17.
35.15000, 15.
35.18000, 21.
35.21000, 13.
35.24000, 22.
35.27000, 15.
35.30000, 15.
35.33000, 13.
35.36000, 10.
35.39000, 11.
35.42000, 15.
35.45000, 21.
35.48000, 18.
35.51000, 9.
35.54000, 15.
35.57000, 8.
35.60000, 17.
35.63000, 24.
35.66000, 15.
35.69000, 14.
35.72000, 20.
35.75000, 17.
35.78000, 14.
35.81000, 17.
35.84000, 13.
35.87000, 22.
35.90000, 10.
35.93000, 17.
35.96000, 23.
35.99000, 11.
36.02000, 16.
36.05000, 13.
36.08000, 18.
36.11000, 15.
36.14000, 14.
36.17000, 11.
36.20000, 11.
36.23000, 15.
36.26000, 15.
36.29000, 10.
36.32000, 15.
36.35000, 12.
36.38000, 20.
36.41000, 20.
36.44000, 15.
36.47000, 10.
36.50000, 18.
36.53000, 14.
36.56000, 18.
36.59000, 11.
36.62000, 15.
36.65000, 15.
36.68000, 8.
36.71000, 13.
36.74000, 23.
36.77000, 12.
36.80000, 8.
36.83000, 20.
36.86000, 16.
36.89000, 12.
36.92000, 16.
36.95000, 16.
36.98000, 14.
37.01000, 10.
37.04000, 15.
37.07000, 8.
37.10000, 21.
37.13000, 11.
37.16000, 9.
37.19000, 9.
37.22000, 8.
37.25000, 17.
37.28000, 17.
37.31000, 10.
37.34000, 7.
37.37000, 10.
37.40000, 11.
37.43000, 19.
37.46000, 17.
37.49000, 15.
37.52000, 12.
37.55000, 15.
37.58000, 7.
37.61000, 13.
37.64000, 9.
37.67000, 8.
37.70000, 9.
37.73000, 9.
37.76000, 13.
37.79000, 9.
37.82000, 8.
37.85000, 11.
37.88000, 8.
37.91000, 12.
37.94000, 13.
37.97000, 8.
38.00000, 11.
38.03000, 6.
38.06000, 12.
38.09000, 10.
38.12000, 11.
38.15000, 9.
38.18000, 10.
38.21000, 8.
38.24000, 14.
38.27000, 8.
38.30000, 8.
38.33000, 10.
38.36000, 8.
38.39000, 9.
38.42000, 9.
38.45000, 4.
38.48000, 9.
38.51000, 11.
38.54000, 8.
38.57000, 13.
38.60000, 5.
38.63000, 11.
38.66000, 11.
38.69000, 8.
38.72000, 4.
38.75000, 9.
38.78000, 7.
38.81000, 9.
38.84000, 8.
38.87000, 14.
38.90000, 16.
38.93000, 8.
38.96000, 14.
38.99000, 5.
39.02000, 12.
39.05000, 3.
39.08000, 5.
39.11000, 7.
39.14000, 9.
39.17000, 8.
39.20000, 10.
39.23000, 5.
39.26000, 5.
39.29000, 6.
39.32000, 11.
39.35000, 11.
39.38000, 6.
39.41000, 4.
39.44000, 8.
39.47000, 8.
39.50000, 6.
39.53000, 3.
39.56000, 4.
39.59000, 3.
39.62000, 2.
39.65000, 7.
39.68000, 9.
39.71000, 11.
39.74000, 8.
39.77000, 6.
39.80000, 11.
39.83000, 9.
39.86000, 10.
39.89000, 6.
39.92000, 5.
39.95000, 7.
39.98000, 6.
40.01000, 3.
40.04000, 4.
40.07000, 7.
40.10000, 12.
40.13000, 6.
40.16000, 5.
40.19000, 3.
40.22000, 4.
40.25000, 2.
40.28000, 4.
40.31000, 6.
40.34000, 4.
40.37000, 3.
40.40000, 5.
40.43000, 5.
40.46000, 4.
40.49000, 2.
40.52000, 3.
40.55000, 0.
#ENDOFDATA   :