File: sample_data/data/Spectrum value from standard/LKSD1/Spectrum 12.txt
#FORMAT      : EMSA/MAS Spectral Data File
#VERSION     : 1.0
#TITLE       : Spectrum 12
#DATE        : 21-AUG-2025
#TIME        : 15:16
#OWNER       : XGT7200
#NPOINTS     : 4096.
#NCOLUMNS    : 1.
#XUNITS      : keV
#YUNITS      : counts
#DATATYPE    : XY
#XPERCHAN    : 0.0100000
#OFFSET      : -0.400000
#SIGNALTYPE  : EDS
#CHOFFSET    : 40.0000
#LIVETIME    : 30
#REALTIME    : 39.7435
#BEAMKV      : 50.0000
#PROBECUR    : 716000.
#MAGCAM      : 100.000
#XTILTSTGE   : 0.0
#AZIMANGLE   : 0.0
#ELEVANGLE   : 45.0
#XPOSITION mm: 0.0000
#YPOSITION mm: 0.0000
#ZPOSITION mm: 0.0000
##OXINSTPT   : 4
##OXINSTSTROB: 72.03
#SPECTRUM    : Spectral Data Starts Here
-0.40000, 0.
-0.37000, 0.
-0.34000, 0.
-0.31000, 0.
-0.28000, 0.
-0.25000, 0.
-0.22000, 0.
-0.19000, 0.
-0.16000, 0.
-0.13000, 0.
-0.10000, 0.
-0.07000, 0.
-0.04000, 0.
-0.01000, 0.
0.02000, 0.
0.05000, 0.
0.08000, 0.
0.11000, 0.
0.14000, 0.
0.17000, 0.
0.20000, 0.
0.23000, 0.
0.26000, 0.
0.29000, 0.
0.32000, 0.
0.35000, 4.
0.38000, 10.
0.41000, 38.
0.44000, 41.
0.47000, 47.
0.50000, 55.
0.53000, 72.
0.56000, 75.
0.59000, 86.
0.62000, 38.
0.65000, 49.
0.68000, 43.
0.71000, 39.
0.74000, 36.
0.77000, 44.
0.80000, 37.
0.83000, 34.
0.86000, 36.
0.89000, 40.
0.92000, 39.
0.95000, 52.
0.98000, 55.
1.01000, 44.
1.04000, 59.
1.07000, 62.
1.10000, 48.
1.13000, 43.
1.16000, 34.
1.19000, 45.
1.22000, 76.
1.25000, 84.
1.28000, 70.
1.31000, 61.
1.34000, 39.
1.37000, 56.
1.40000, 62.
1.43000, 169.
1.46000, 341.
1.49000, 415.
1.52000, 334.
1.55000, 169.
1.58000, 112.
1.61000, 106.
1.64000, 246.
1.67000, 916.
1.70000, 2443.
1.73000, 4208.
1.76000, 4243.
1.79000, 2806.
1.82000, 1157.
1.85000, 430.
1.88000, 203.
1.91000, 127.
1.94000, 161.
1.97000, 147.
2.00000, 112.
2.03000, 83.
2.06000, 65.
2.09000, 44.
2.12000, 37.
2.15000, 53.
2.18000, 97.
2.21000, 190.
2.24000, 524.
2.27000, 1042.
2.30000, 1578.
2.33000, 1580.
2.36000, 935.
2.39000, 412.
2.42000, 204.
2.45000, 155.
2.48000, 156.
2.51000, 130.
2.54000, 106.
2.57000, 116.
2.60000, 160.
2.63000, 275.
2.66000, 449.
2.69000, 586.
2.72000, 532.
2.75000, 410.
2.78000, 304.
2.81000, 342.
2.84000, 399.
2.87000, 408.
2.90000, 296.
2.93000, 207.
2.96000, 136.
2.99000, 83.
3.02000, 64.
3.05000, 62.
3.08000, 55.
3.11000, 39.
3.14000, 48.
3.17000, 51.
3.20000, 71.
3.23000, 119.
3.26000, 255.
3.29000, 382.
3.32000, 455.
3.35000, 406.
3.38000, 244.
3.41000, 108.
3.44000, 58.
3.47000, 61.
3.50000, 70.
3.53000, 152.
3.56000, 396.
3.59000, 1096.
3.62000, 2794.
3.65000, 5374.
3.68000, 7309.
3.71000, 7551.
3.74000, 5153.
3.77000, 2659.
3.80000, 970.
3.83000, 299.
3.86000, 126.
3.89000, 122.
3.92000, 268.
3.95000, 569.
3.98000, 882.
4.01000, 1126.
4.04000, 1083.
4.07000, 699.
4.10000, 361.
4.13000, 146.
4.16000, 58.
4.19000, 40.
4.22000, 27.
4.25000, 22.
4.28000, 38.
4.31000, 31.
4.34000, 38.
4.37000, 47.
4.40000, 88.
4.43000, 171.
4.46000, 319.
4.49000, 466.
4.52000, 432.
4.55000, 391.
4.58000, 265.
4.61000, 158.
4.64000, 95.
4.67000, 69.
4.70000, 61.
4.73000, 63.
4.76000, 52.
4.79000, 50.
4.82000, 54.
4.85000, 68.
4.88000, 99.
4.91000, 120.
4.94000, 136.
4.97000, 97.
5.00000, 80.
5.03000, 56.
5.06000, 48.
5.09000, 51.
5.12000, 40.
5.15000, 58.
5.18000, 40.
5.21000, 57.
5.24000, 58.
5.27000, 67.
5.30000, 57.
5.33000, 57.
5.36000, 61.
5.39000, 68.
5.42000, 79.
5.45000, 73.
5.48000, 46.
5.51000, 58.
5.54000, 54.
5.57000, 60.
5.60000, 58.
5.63000, 69.
5.66000, 60.
5.69000, 47.
5.72000, 40.
5.75000, 73.
5.78000, 87.
5.81000, 113.
5.84000, 184.
5.87000, 221.
5.90000, 232.
5.93000, 232.
5.96000, 174.
5.99000, 105.
6.02000, 85.
6.05000, 84.
6.08000, 92.
6.11000, 76.
6.14000, 101.
6.17000, 93.
6.20000, 161.
6.23000, 389.
6.26000, 893.
6.29000, 2290.
6.32000, 4474.
6.35000, 7614.
6.38000, 10000.
6.41000, 10126.
6.44000, 8437.
6.47000, 5340.
6.50000, 2906.
6.53000, 1128.
6.56000, 450.
6.59000, 202.
6.62000, 122.
6.65000, 86.
6.68000, 118.
6.71000, 98.
6.74000, 96.
6.77000, 99.
6.80000, 109.
6.83000, 96.
6.86000, 147.
6.89000, 189.
6.92000, 334.
6.95000, 543.
6.98000, 924.
7.01000, 1397.
7.04000, 1588.
7.07000, 1581.
7.10000, 1309.
7.13000, 907.
7.16000, 455.
7.19000, 237.
7.22000, 131.
7.25000, 88.
7.28000, 80.
7.31000, 70.
7.34000, 76.
7.37000, 74.
7.40000, 74.
7.43000, 86.
7.46000, 92.
7.49000, 92.
7.52000, 71.
7.55000, 88.
7.58000, 78.
7.61000, 91.
7.64000, 76.
7.67000, 79.
7.70000, 61.
7.73000, 71.
7.76000, 106.
7.79000, 84.
7.82000, 89.
7.85000, 85.
7.88000, 93.
7.91000, 80.
7.94000, 88.
7.97000, 108.
8.00000, 114.
8.03000, 136.
8.06000, 138.
8.09000, 119.
8.12000, 137.
8.15000, 127.
8.18000, 126.
8.21000, 113.
8.24000, 107.
8.27000, 101.
8.30000, 112.
8.33000, 107.
8.36000, 100.
8.39000, 117.
8.42000, 130.
8.45000, 114.
8.48000, 137.
8.51000, 178.
8.54000, 212.
8.57000, 300.
8.60000, 339.
8.63000, 353.
8.66000, 330.
8.69000, 258.
8.72000, 205.
8.75000, 162.
8.78000, 119.
8.81000, 144.
8.84000, 127.
8.87000, 124.
8.90000, 121.
8.93000, 115.
8.96000, 140.
8.99000, 130.
9.02000, 117.
9.05000, 129.
9.08000, 103.
9.11000, 123.
9.14000, 114.
9.17000, 139.
9.20000, 131.
9.23000, 139.
9.26000, 150.
9.29000, 147.
9.32000, 125.
9.35000, 149.
9.38000, 123.
9.41000, 138.
9.44000, 142.
9.47000, 144.
9.50000, 165.
9.53000, 161.
9.56000, 159.
9.59000, 163.
9.62000, 175.
9.65000, 144.
9.68000, 128.
9.71000, 133.
9.74000, 140.
9.77000, 151.
9.80000, 125.
9.83000, 137.
9.86000, 143.
9.89000, 133.
9.92000, 137.
9.95000, 147.
9.98000, 158.
10.01000, 151.
10.04000, 160.
10.07000, 155.
10.10000, 158.
10.13000, 139.
10.16000, 151.
10.19000, 149.
10.22000, 134.
10.25000, 120.
10.28000, 130.
10.31000, 149.
10.34000, 153.
10.37000, 167.
10.40000, 157.
10.43000, 182.
10.46000, 181.
10.49000, 174.
10.52000, 216.
10.55000, 194.
10.58000, 194.
10.61000, 158.
10.64000, 179.
10.67000, 160.
10.70000, 171.
10.73000, 155.
10.76000, 142.
10.79000, 142.
10.82000, 135.
10.85000, 159.
10.88000, 151.
10.91000, 125.
10.94000, 154.
10.97000, 160.
11.00000, 156.
11.03000, 131.
11.06000, 141.
11.09000, 150.
11.12000, 156.
11.15000, 147.
11.18000, 135.
11.21000, 167.
11.24000, 163.
11.27000, 163.
11.30000, 158.
11.33000, 143.
11.36000, 135.
11.39000, 159.
11.42000, 165.
11.45000, 159.
11.48000, 157.
11.51000, 182.
11.54000, 151.
11.57000, 149.
11.60000, 136.
11.63000, 144.
11.66000, 147.
11.69000, 157.
11.72000, 164.
11.75000, 177.
11.78000, 164.
11.81000, 162.
11.84000, 172.
11.87000, 151.
11.90000, 176.
11.93000, 168.
11.96000, 177.
11.99000, 138.
12.02000, 156.
12.05000, 161.
12.08000, 133.
12.11000, 155.
12.14000, 130.
12.17000, 173.
12.20000, 160.
12.23000, 187.
12.26000, 158.
12.29000, 160.
12.32000, 182.
12.35000, 165.
12.38000, 160.
12.41000, 184.
12.44000, 168.
12.47000, 176.
12.50000, 169.
12.53000, 179.
12.56000, 199.
12.59000, 190.
12.62000, 211.
12.65000, 193.
12.68000, 158.
12.71000, 180.
12.74000, 182.
12.77000, 190.
12.80000, 196.
12.83000, 187.
12.86000, 181.
12.89000, 154.
12.92000, 163.
12.95000, 148.
12.98000, 170.
13.01000, 178.
13.04000, 154.
13.07000, 165.
13.10000, 150.
13.13000, 175.
13.16000, 195.
13.19000, 170.
13.22000, 161.
13.25000, 176.
13.28000, 197.
13.31000, 200.
13.34000, 202.
13.37000, 185.
13.40000, 207.
13.43000, 222.
13.46000, 205.
13.49000, 170.
13.52000, 183.
13.55000, 179.
13.58000, 183.
13.61000, 167.
13.64000, 168.
13.67000, 158.
13.70000, 170.
13.73000, 150.
13.76000, 184.
13.79000, 164.
13.82000, 157.
13.85000, 167.
13.88000, 192.
13.91000, 183.
13.94000, 209.
13.97000, 215.
14.00000, 324.
14.03000, 351.
14.06000, 391.
14.09000, 461.
14.12000, 460.
14.15000, 439.
14.18000, 405.
14.21000, 344.
14.24000, 312.
14.27000, 235.
14.30000, 207.
14.33000, 187.
14.36000, 195.
14.39000, 176.
14.42000, 175.
14.45000, 148.
14.48000, 156.
14.51000, 170.
14.54000, 197.
14.57000, 156.
14.60000, 168.
14.63000, 165.
14.66000, 176.
14.69000, 141.
14.72000, 160.
14.75000, 174.
14.78000, 152.
14.81000, 199.
14.84000, 190.
14.87000, 202.
14.90000, 181.
14.93000, 149.
14.96000, 181.
14.99000, 160.
15.02000, 181.
15.05000, 165.
15.08000, 174.
15.11000, 154.
15.14000, 153.
15.17000, 181.
15.20000, 157.
15.23000, 165.
15.26000, 163.
15.29000, 166.
15.32000, 174.
15.35000, 169.
15.38000, 172.
15.41000, 159.
15.44000, 173.
15.47000, 174.
15.50000, 175.
15.53000, 152.
15.56000, 186.
15.59000, 208.
15.62000, 197.
15.65000, 259.
15.68000, 259.
15.71000, 274.
15.74000, 294.
15.77000, 262.
15.80000, 311.
15.83000, 254.
15.86000, 261.
15.89000, 189.
15.92000, 204.
15.95000, 162.
15.98000, 180.
16.01000, 167.
16.04000, 159.
16.07000, 150.
16.10000, 151.
16.13000, 164.
16.16000, 147.
16.19000, 173.
16.22000, 146.
16.25000, 171.
16.28000, 168.
16.31000, 157.
16.34000, 151.
16.37000, 155.
16.40000, 143.
16.43000, 155.
16.46000, 193.
16.49000, 163.
16.52000, 165.
16.55000, 140.
16.58000, 168.
16.61000, 146.
16.64000, 158.
16.67000, 172.
16.70000, 175.
16.73000, 158.
16.76000, 149.
16.79000, 157.
16.82000, 169.
16.85000, 163.
16.88000, 157.
16.91000, 155.
16.94000, 154.
16.97000, 171.
17.00000, 169.
17.03000, 185.
17.06000, 182.
17.09000, 176.
17.12000, 148.
17.15000, 166.
17.18000, 174.
17.21000, 157.
17.24000, 178.
17.27000, 184.
17.30000, 167.
17.33000, 172.
17.36000, 172.
17.39000, 180.
17.42000, 180.
17.45000, 200.
17.48000, 198.
17.51000, 185.
17.54000, 213.
17.57000, 211.
17.60000, 195.
17.63000, 196.
17.66000, 212.
17.69000, 199.
17.72000, 232.
17.75000, 219.
17.78000, 201.
17.81000, 195.
17.84000, 200.
17.87000, 211.
17.90000, 232.
17.93000, 233.
17.96000, 271.
17.99000, 235.
18.02000, 256.
18.05000, 237.
18.08000, 236.
18.11000, 267.
18.14000, 238.
18.17000, 292.
18.20000, 289.
18.23000, 308.
18.26000, 335.
18.29000, 364.
18.32000, 377.
18.35000, 378.
18.38000, 437.
18.41000, 475.
18.44000, 534.
18.47000, 583.
18.50000, 614.
18.53000, 706.
18.56000, 752.
18.59000, 824.
18.62000, 866.
18.65000, 890.
18.68000, 978.
18.71000, 968.
18.74000, 987.
18.77000, 1025.
18.80000, 1043.
18.83000, 1034.
18.86000, 975.
18.89000, 1022.
18.92000, 904.
18.95000, 910.
18.98000, 925.
19.01000, 742.
19.04000, 745.
19.07000, 696.
19.10000, 618.
19.13000, 606.
19.16000, 472.
19.19000, 485.
19.22000, 408.
19.25000, 418.
19.28000, 362.
19.31000, 362.
19.34000, 353.
19.37000, 292.
19.40000, 289.
19.43000, 292.
19.46000, 279.
19.49000, 261.
19.52000, 236.
19.55000, 223.
19.58000, 221.
19.61000, 199.
19.64000, 211.
19.67000, 236.
19.70000, 188.
19.73000, 170.
19.76000, 189.
19.79000, 182.
19.82000, 194.
19.85000, 194.
19.88000, 230.
19.91000, 277.
19.94000, 292.
19.97000, 358.
20.00000, 440.
20.03000, 462.
20.06000, 494.
20.09000, 523.
20.12000, 611.
20.15000, 579.
20.18000, 611.
20.21000, 493.
20.24000, 506.
20.27000, 420.
20.30000, 358.
20.33000, 273.
20.36000, 255.
20.39000, 210.
20.42000, 187.
20.45000, 166.
20.48000, 178.
20.51000, 182.
20.54000, 186.
20.57000, 194.
20.60000, 178.
20.63000, 223.
20.66000, 178.
20.69000, 233.
20.72000, 232.
20.75000, 220.
20.78000, 223.
20.81000, 270.
20.84000, 246.
20.87000, 251.
20.90000, 261.
20.93000, 270.
20.96000, 284.
20.99000, 264.
21.02000, 276.
21.05000, 278.
21.08000, 277.
21.11000, 289.
21.14000, 255.
21.17000, 243.
21.20000, 242.
21.23000, 242.
21.26000, 234.
21.29000, 243.
21.32000, 206.
21.35000, 192.
21.38000, 199.
21.41000, 211.
21.44000, 191.
21.47000, 151.
21.50000, 157.
21.53000, 153.
21.56000, 136.
21.59000, 133.
21.62000, 119.
21.65000, 131.
21.68000, 137.
21.71000, 141.
21.74000, 123.
21.77000, 133.
21.80000, 97.
21.83000, 123.
21.86000, 114.
21.89000, 125.
21.92000, 99.
21.95000, 118.
21.98000, 116.
22.01000, 105.
22.04000, 101.
22.07000, 100.
22.10000, 113.
22.13000, 100.
22.16000, 89.
22.19000, 90.
22.22000, 109.
22.25000, 103.
22.28000, 91.
22.31000, 76.
22.34000, 98.
22.37000, 102.
22.40000, 101.
22.43000, 99.
22.46000, 100.
22.49000, 101.
22.52000, 116.
22.55000, 131.
22.58000, 131.
22.61000, 147.
22.64000, 176.
22.67000, 151.
22.70000, 136.
22.73000, 140.
22.76000, 127.
22.79000, 128.
22.82000, 93.
22.85000, 95.
22.88000, 84.
22.91000, 83.
22.94000, 101.
22.97000, 88.
23.00000, 81.
23.03000, 105.
23.06000, 92.
23.09000, 84.
23.12000, 104.
23.15000, 102.
23.18000, 90.
23.21000, 90.
23.24000, 77.
23.27000, 90.
23.30000, 63.
23.33000, 85.
23.36000, 68.
23.39000, 95.
23.42000, 72.
23.45000, 80.
23.48000, 76.
23.51000, 90.
23.54000, 65.
23.57000, 82.
23.60000, 64.
23.63000, 60.
23.66000, 67.
23.69000, 63.
23.72000, 80.
23.75000, 86.
23.78000, 92.
23.81000, 77.
23.84000, 75.
23.87000, 76.
23.90000, 63.
23.93000, 88.
23.96000, 73.
23.99000, 84.
24.02000, 60.
24.05000, 72.
24.08000, 92.
24.11000, 67.
24.14000, 69.
24.17000, 75.
24.20000, 68.
24.23000, 74.
24.26000, 68.
24.29000, 66.
24.32000, 71.
24.35000, 73.
24.38000, 66.
24.41000, 64.
24.44000, 84.
24.47000, 65.
24.50000, 63.
24.53000, 55.
24.56000, 80.
24.59000, 61.
24.62000, 70.
24.65000, 78.
24.68000, 77.
24.71000, 74.
24.74000, 61.
24.77000, 62.
24.80000, 76.
24.83000, 75.
24.86000, 67.
24.89000, 83.
24.92000, 74.
24.95000, 92.
24.98000, 75.
25.01000, 68.
25.04000, 83.
25.07000, 85.
25.10000, 59.
25.13000, 81.
25.16000, 60.
25.19000, 75.
25.22000, 74.
25.25000, 77.
25.28000, 69.
25.31000, 67.
25.34000, 91.
25.37000, 80.
25.40000, 73.
25.43000, 58.
25.46000, 69.
25.49000, 53.
25.52000, 70.
25.55000, 55.
25.58000, 65.
25.61000, 64.
25.64000, 70.
25.67000, 74.
25.70000, 55.
25.73000, 60.
25.76000, 65.
25.79000, 64.
25.82000, 58.
25.85000, 64.
25.88000, 54.
25.91000, 59.
25.94000, 51.
25.97000, 63.
26.00000, 56.
26.03000, 77.
26.06000, 69.
26.09000, 69.
26.12000, 58.
26.15000, 69.
26.18000, 58.
26.21000, 53.
26.24000, 68.
26.27000, 63.
26.30000, 57.
26.33000, 66.
26.36000, 48.
26.39000, 74.
26.42000, 58.
26.45000, 60.
26.48000, 60.
26.51000, 68.
26.54000, 70.
26.57000, 55.
26.60000, 59.
26.63000, 59.
26.66000, 54.
26.69000, 62.
26.72000, 45.
26.75000, 66.
26.78000, 68.
26.81000, 54.
26.84000, 65.
26.87000, 43.
26.90000, 61.
26.93000, 59.
26.96000, 48.
26.99000, 49.
27.02000, 58.
27.05000, 62.
27.08000, 64.
27.11000, 58.
27.14000, 57.
27.17000, 54.
27.20000, 72.
27.23000, 48.
27.26000, 67.
27.29000, 61.
27.32000, 67.
27.35000, 43.
27.38000, 39.
27.41000, 65.
27.44000, 57.
27.47000, 63.
27.50000, 58.
27.53000, 55.
27.56000, 54.
27.59000, 49.
27.62000, 63.
27.65000, 62.
27.68000, 64.
27.71000, 46.
27.74000, 57.
27.77000, 46.
27.80000, 46.
27.83000, 52.
27.86000, 45.
27.89000, 48.
27.92000, 43.
27.95000, 52.
27.98000, 56.
28.01000, 37.
28.04000, 61.
28.07000, 67.
28.10000, 52.
28.13000, 59.
28.16000, 61.
28.19000, 35.
28.22000, 53.
28.25000, 50.
28.28000, 49.
28.31000, 41.
28.34000, 51.
28.37000, 47.
28.40000, 56.
28.43000, 45.
28.46000, 38.
28.49000, 43.
28.52000, 49.
28.55000, 55.
28.58000, 46.
28.61000, 55.
28.64000, 43.
28.67000, 57.
28.70000, 47.
28.73000, 49.
28.76000, 50.
28.79000, 41.
28.82000, 53.
28.85000, 44.
28.88000, 45.
28.91000, 40.
28.94000, 47.
28.97000, 48.
29.00000, 47.
29.03000, 46.
29.06000, 47.
29.09000, 37.
29.12000, 35.
29.15000, 36.
29.18000, 52.
29.21000, 44.
29.24000, 40.
29.27000, 58.
29.30000, 44.
29.33000, 34.
29.36000, 52.
29.39000, 36.
29.42000, 42.
29.45000, 48.
29.48000, 47.
29.51000, 31.
29.54000, 41.
29.57000, 48.
29.60000, 44.
29.63000, 42.
29.66000, 36.
29.69000, 44.
29.72000, 46.
29.75000, 46.
29.78000, 39.
29.81000, 33.
29.84000, 41.
29.87000, 43.
29.90000, 37.
29.93000, 37.
29.96000, 48.
29.99000, 32.
30.02000, 47.
30.05000, 48.
30.08000, 37.
30.11000, 43.
30.14000, 38.
30.17000, 38.
30.20000, 33.
30.23000, 27.
30.26000, 42.
30.29000, 32.
30.32000, 43.
30.35000, 32.
30.38000, 32.
30.41000, 35.
30.44000, 41.
30.47000, 46.
30.50000, 33.
30.53000, 41.
30.56000, 33.
30.59000, 42.
30.62000, 49.
30.65000, 38.
30.68000, 24.
30.71000, 31.
30.74000, 37.
30.77000, 37.
30.80000, 34.
30.83000, 49.
30.86000, 35.
30.89000, 46.
30.92000, 39.
30.95000, 27.
30.98000, 35.
31.01000, 33.
31.04000, 38.
31.07000, 40.
31.10000, 28.
31.13000, 30.
31.16000, 34.
31.19000, 45.
31.22000, 16.
31.25000, 36.
31.28000, 30.
31.31000, 43.
31.34000, 34.
31.37000, 25.
31.40000, 29.
31.43000, 24.
31.46000, 31.
31.49000, 38.
31.52000, 32.
31.55000, 33.
31.58000, 37.
31.61000, 33.
31.64000, 35.
31.67000, 35.
31.70000, 39.
31.73000, 22.
31.76000, 38.
31.79000, 37.
31.82000, 32.
31.85000, 26.
31.88000, 30.
31.91000, 25.
31.94000, 38.
31.97000, 36.
32.00000, 31.
32.03000, 38.
32.06000, 39.
32.09000, 33.
32.12000, 36.
32.15000, 34.
32.18000, 34.
32.21000, 34.
32.24000, 33.
32.27000, 25.
32.30000, 37.
32.33000, 26.
32.36000, 29.
32.39000, 20.
32.42000, 26.
32.45000, 35.
32.48000, 26.
32.51000, 23.
32.54000, 27.
32.57000, 46.
32.60000, 20.
32.63000, 23.
32.66000, 32.
32.69000, 28.
32.72000, 30.
32.75000, 24.
32.78000, 27.
32.81000, 34.
32.84000, 28.
32.87000, 23.
32.90000, 25.
32.93000, 31.
32.96000, 26.
32.99000, 28.
33.02000, 17.
33.05000, 15.
33.08000, 26.
33.11000, 35.
33.14000, 20.
33.17000, 18.
33.20000, 25.
33.23000, 27.
33.26000, 24.
33.29000, 25.
33.32000, 20.
33.35000, 28.
33.38000, 26.
33.41000, 22.
33.44000, 37.
33.47000, 32.
33.50000, 20.
33.53000, 18.
33.56000, 18.
33.59000, 21.
33.62000, 26.
33.65000, 32.
33.68000, 24.
33.71000, 28.
33.74000, 22.
33.77000, 23.
33.80000, 29.
33.83000, 20.
33.86000, 23.
33.89000, 19.
33.92000, 30.
33.95000, 29.
33.98000, 26.
34.01000, 22.
34.04000, 21.
34.07000, 20.
34.10000, 23.
34.13000, 18.
34.16000, 20.
34.19000, 28.
34.22000, 26.
34.25000, 30.
34.28000, 15.
34.31000, 23.
34.34000, 20.
34.37000, 23.
34.40000, 23.
34.43000, 19.
34.46000, 21.
34.49000, 22.
34.52000, 20.
34.55000, 17.
34.58000, 20.
34.61000, 22.
34.64000, 21.
34.67000, 15.
34.70000, 26.
34.73000, 23.
34.76000, 22.
34.79000, 23.
34.82000, 14.
34.85000, 18.
34.88000, 20.
34.91000, 11.
34.94000, 29.
34.97000, 12.
35.00000, 16.
35.03000, 16.
35.06000, 12.
35.09000, 12.
35.12000, 19.
35.15000, 16.
35.18000, 24.
35.21000, 16.
35.24000, 21.
35.27000, 22.
35.30000, 18.
35.33000, 18.
35.36000, 19.
35.39000, 20.
35.42000, 15.
35.45000, 13.
35.48000, 16.
35.51000, 21.
35.54000, 11.
35.57000, 20.
35.60000, 23.
35.63000, 18.
35.66000, 17.
35.69000, 18.
35.72000, 8.
35.75000, 20.
35.78000, 23.
35.81000, 12.
35.84000, 22.
35.87000, 15.
35.90000, 11.
35.93000, 22.
35.96000, 8.
35.99000, 15.
36.02000, 12.
36.05000, 17.
36.08000, 20.
36.11000, 15.
36.14000, 10.
36.17000, 17.
36.20000, 17.
36.23000, 19.
36.26000, 15.
36.29000, 7.
36.32000, 8.
36.35000, 15.
36.38000, 16.
36.41000, 9.
36.44000, 9.
36.47000, 16.
36.50000, 13.
36.53000, 19.
36.56000, 11.
36.59000, 11.
36.62000, 11.
36.65000, 13.
36.68000, 24.
36.71000, 14.
36.74000, 13.
36.77000, 8.
36.80000, 15.
36.83000, 13.
36.86000, 17.
36.89000, 10.
36.92000, 17.
36.95000, 10.
36.98000, 16.
37.01000, 12.
37.04000, 10.
37.07000, 9.
37.10000, 18.
37.13000, 12.
37.16000, 15.
37.19000, 17.
37.22000, 10.
37.25000, 11.
37.28000, 10.
37.31000, 14.
37.34000, 5.
37.37000, 17.
37.40000, 11.
37.43000, 14.
37.46000, 19.
37.49000, 11.
37.52000, 4.
37.55000, 13.
37.58000, 11.
37.61000, 14.
37.64000, 7.
37.67000, 16.
37.70000, 6.
37.73000, 3.
37.76000, 5.
37.79000, 10.
37.82000, 13.
37.85000, 14.
37.88000, 14.
37.91000, 8.
37.94000, 6.
37.97000, 9.
38.00000, 10.
38.03000, 10.
38.06000, 6.
38.09000, 15.
38.12000, 10.
38.15000, 13.
38.18000, 7.
38.21000, 9.
38.24000, 10.
38.27000, 15.
38.30000, 8.
38.33000, 10.
38.36000, 7.
38.39000, 12.
38.42000, 7.
38.45000, 5.
38.48000, 14.
38.51000, 7.
38.54000, 14.
38.57000, 5.
38.60000, 7.
38.63000, 9.
38.66000, 15.
38.69000, 11.
38.72000, 7.
38.75000, 9.
38.78000, 5.
38.81000, 10.
38.84000, 11.
38.87000, 3.
38.90000, 11.
38.93000, 7.
38.96000, 12.
38.99000, 5.
39.02000, 11.
39.05000, 9.
39.08000, 7.
39.11000, 9.
39.14000, 8.
39.17000, 10.
39.20000, 11.
39.23000, 7.
39.26000, 5.
39.29000, 8.
39.32000, 6.
39.35000, 4.
39.38000, 9.
39.41000, 9.
39.44000, 8.
39.47000, 6.
39.50000, 10.
39.53000, 10.
39.56000, 8.
39.59000, 10.
39.62000, 4.
39.65000, 6.
39.68000, 8.
39.71000, 6.
39.74000, 6.
39.77000, 11.
39.80000, 8.
39.83000, 4.
39.86000, 6.
39.89000, 5.
39.92000, 10.
39.95000, 7.
39.98000, 4.
40.01000, 5.
40.04000, 2.
40.07000, 7.
40.10000, 7.
40.13000, 7.
40.16000, 2.
40.19000, 6.
40.22000, 6.
40.25000, 6.
40.28000, 5.
40.31000, 2.
40.34000, 3.
40.37000, 8.
40.40000, 4.
40.43000, 8.
40.46000, 5.
40.49000, 4.
40.52000, 5.
40.55000, 0.
#ENDOFDATA   :