File: sample_data/data/Spectrum value from standard/LKSD1/Spectrum 11.txt
#FORMAT      : EMSA/MAS Spectral Data File
#VERSION     : 1.0
#TITLE       : Spectrum 11
#DATE        : 21-AUG-2025
#TIME        : 15:15
#OWNER       : XGT7200
#NPOINTS     : 4096.
#NCOLUMNS    : 1.
#XUNITS      : keV
#YUNITS      : counts
#DATATYPE    : XY
#XPERCHAN    : 0.0100000
#OFFSET      : -0.400000
#SIGNALTYPE  : EDS
#CHOFFSET    : 40.0000
#LIVETIME    : 30
#REALTIME    : 39.5634
#BEAMKV      : 50.0000
#PROBECUR    : 717000.
#MAGCAM      : 100.000
#XTILTSTGE   : 0.0
#AZIMANGLE   : 0.0
#ELEVANGLE   : 45.0
#XPOSITION mm: 0.0000
#YPOSITION mm: 0.0000
#ZPOSITION mm: 0.0000
##OXINSTPT   : 4
##OXINSTSTROB: 72.01
#SPECTRUM    : Spectral Data Starts Here
-0.40000, 0.
-0.37000, 0.
-0.34000, 0.
-0.31000, 0.
-0.28000, 0.
-0.25000, 0.
-0.22000, 0.
-0.19000, 0.
-0.16000, 0.
-0.13000, 0.
-0.10000, 0.
-0.07000, 0.
-0.04000, 0.
-0.01000, 0.
0.02000, 0.
0.05000, 0.
0.08000, 0.
0.11000, 0.
0.14000, 0.
0.17000, 0.
0.20000, 0.
0.23000, 0.
0.26000, 0.
0.29000, 0.
0.32000, 0.
0.35000, 1.
0.38000, 15.
0.41000, 33.
0.44000, 54.
0.47000, 57.
0.50000, 56.
0.53000, 60.
0.56000, 56.
0.59000, 67.
0.62000, 60.
0.65000, 44.
0.68000, 44.
0.71000, 46.
0.74000, 44.
0.77000, 46.
0.80000, 44.
0.83000, 36.
0.86000, 38.
0.89000, 46.
0.92000, 48.
0.95000, 46.
0.98000, 48.
1.01000, 55.
1.04000, 48.
1.07000, 54.
1.10000, 38.
1.13000, 53.
1.16000, 44.
1.19000, 45.
1.22000, 55.
1.25000, 73.
1.28000, 69.
1.31000, 54.
1.34000, 40.
1.37000, 35.
1.40000, 57.
1.43000, 193.
1.46000, 303.
1.49000, 408.
1.52000, 338.
1.55000, 189.
1.58000, 115.
1.61000, 77.
1.64000, 235.
1.67000, 910.
1.70000, 2414.
1.73000, 4256.
1.76000, 4209.
1.79000, 2700.
1.82000, 1174.
1.85000, 411.
1.88000, 178.
1.91000, 136.
1.94000, 156.
1.97000, 121.
2.00000, 122.
2.03000, 102.
2.06000, 68.
2.09000, 59.
2.12000, 49.
2.15000, 51.
2.18000, 72.
2.21000, 187.
2.24000, 521.
2.27000, 1026.
2.30000, 1514.
2.33000, 1425.
2.36000, 836.
2.39000, 419.
2.42000, 167.
2.45000, 149.
2.48000, 152.
2.51000, 121.
2.54000, 103.
2.57000, 108.
2.60000, 164.
2.63000, 259.
2.66000, 413.
2.69000, 492.
2.72000, 440.
2.75000, 385.
2.78000, 287.
2.81000, 334.
2.84000, 372.
2.87000, 331.
2.90000, 236.
2.93000, 177.
2.96000, 114.
2.99000, 83.
3.02000, 51.
3.05000, 63.
3.08000, 52.
3.11000, 31.
3.14000, 53.
3.17000, 49.
3.20000, 65.
3.23000, 146.
3.26000, 271.
3.29000, 430.
3.32000, 502.
3.35000, 457.
3.38000, 259.
3.41000, 120.
3.44000, 76.
3.47000, 53.
3.50000, 86.
3.53000, 156.
3.56000, 370.
3.59000, 1057.
3.62000, 2626.
3.65000, 5058.
3.68000, 7097.
3.71000, 6943.
3.74000, 4944.
3.77000, 2559.
3.80000, 883.
3.83000, 272.
3.86000, 115.
3.89000, 121.
3.92000, 229.
3.95000, 522.
3.98000, 770.
4.01000, 1068.
4.04000, 962.
4.07000, 613.
4.10000, 315.
4.13000, 132.
4.16000, 53.
4.19000, 32.
4.22000, 24.
4.25000, 24.
4.28000, 28.
4.31000, 37.
4.34000, 22.
4.37000, 36.
4.40000, 71.
4.43000, 142.
4.46000, 252.
4.49000, 328.
4.52000, 360.
4.55000, 308.
4.58000, 182.
4.61000, 135.
4.64000, 97.
4.67000, 77.
4.70000, 60.
4.73000, 59.
4.76000, 44.
4.79000, 61.
4.82000, 59.
4.85000, 59.
4.88000, 88.
4.91000, 100.
4.94000, 86.
4.97000, 89.
5.00000, 72.
5.03000, 64.
5.06000, 33.
5.09000, 45.
5.12000, 51.
5.15000, 60.
5.18000, 26.
5.21000, 55.
5.24000, 50.
5.27000, 45.
5.30000, 57.
5.33000, 58.
5.36000, 65.
5.39000, 76.
5.42000, 59.
5.45000, 79.
5.48000, 61.
5.51000, 56.
5.54000, 49.
5.57000, 52.
5.60000, 60.
5.63000, 60.
5.66000, 65.
5.69000, 64.
5.72000, 50.
5.75000, 62.
5.78000, 90.
5.81000, 118.
5.84000, 182.
5.87000, 244.
5.90000, 245.
5.93000, 227.
5.96000, 170.
5.99000, 131.
6.02000, 96.
6.05000, 64.
6.08000, 77.
6.11000, 83.
6.14000, 85.
6.17000, 103.
6.20000, 136.
6.23000, 345.
6.26000, 846.
6.29000, 2052.
6.32000, 4283.
6.35000, 7136.
6.38000, 9375.
6.41000, 9869.
6.44000, 7902.
6.47000, 5177.
6.50000, 2680.
6.53000, 1103.
6.56000, 422.
6.59000, 188.
6.62000, 106.
6.65000, 115.
6.68000, 86.
6.71000, 81.
6.74000, 101.
6.77000, 94.
6.80000, 85.
6.83000, 125.
6.86000, 138.
6.89000, 177.
6.92000, 258.
6.95000, 534.
6.98000, 874.
7.01000, 1365.
7.04000, 1627.
7.07000, 1524.
7.10000, 1228.
7.13000, 797.
7.16000, 468.
7.19000, 219.
7.22000, 137.
7.25000, 88.
7.28000, 91.
7.31000, 63.
7.34000, 72.
7.37000, 74.
7.40000, 80.
7.43000, 71.
7.46000, 82.
7.49000, 74.
7.52000, 97.
7.55000, 88.
7.58000, 71.
7.61000, 71.
7.64000, 81.
7.67000, 77.
7.70000, 61.
7.73000, 71.
7.76000, 85.
7.79000, 97.
7.82000, 87.
7.85000, 88.
7.88000, 88.
7.91000, 94.
7.94000, 95.
7.97000, 116.
8.00000, 116.
8.03000, 138.
8.06000, 124.
8.09000, 119.
8.12000, 139.
8.15000, 106.
8.18000, 110.
8.21000, 126.
8.24000, 112.
8.27000, 83.
8.30000, 132.
8.33000, 108.
8.36000, 105.
8.39000, 113.
8.42000, 113.
8.45000, 107.
8.48000, 128.
8.51000, 166.
8.54000, 188.
8.57000, 262.
8.60000, 264.
8.63000, 313.
8.66000, 288.
8.69000, 218.
8.72000, 207.
8.75000, 154.
8.78000, 124.
8.81000, 123.
8.84000, 116.
8.87000, 107.
8.90000, 108.
8.93000, 109.
8.96000, 123.
8.99000, 108.
9.02000, 123.
9.05000, 129.
9.08000, 107.
9.11000, 114.
9.14000, 133.
9.17000, 123.
9.20000, 131.
9.23000, 142.
9.26000, 127.
9.29000, 130.
9.32000, 132.
9.35000, 143.
9.38000, 137.
9.41000, 117.
9.44000, 149.
9.47000, 144.
9.50000, 132.
9.53000, 180.
9.56000, 151.
9.59000, 166.
9.62000, 151.
9.65000, 157.
9.68000, 136.
9.71000, 147.
9.74000, 143.
9.77000, 139.
9.80000, 128.
9.83000, 128.
9.86000, 126.
9.89000, 144.
9.92000, 134.
9.95000, 138.
9.98000, 119.
10.01000, 144.
10.04000, 177.
10.07000, 162.
10.10000, 147.
10.13000, 159.
10.16000, 120.
10.19000, 164.
10.22000, 124.
10.25000, 122.
10.28000, 177.
10.31000, 131.
10.34000, 146.
10.37000, 154.
10.40000, 153.
10.43000, 184.
10.46000, 171.
10.49000, 169.
10.52000, 195.
10.55000, 203.
10.58000, 190.
10.61000, 179.
10.64000, 183.
10.67000, 136.
10.70000, 127.
10.73000, 144.
10.76000, 148.
10.79000, 150.
10.82000, 162.
10.85000, 126.
10.88000, 149.
10.91000, 155.
10.94000, 163.
10.97000, 145.
11.00000, 158.
11.03000, 141.
11.06000, 139.
11.09000, 163.
11.12000, 148.
11.15000, 157.
11.18000, 165.
11.21000, 144.
11.24000, 154.
11.27000, 163.
11.30000, 140.
11.33000, 156.
11.36000, 159.
11.39000, 157.
11.42000, 171.
11.45000, 170.
11.48000, 149.
11.51000, 161.
11.54000, 188.
11.57000, 125.
11.60000, 176.
11.63000, 159.
11.66000, 170.
11.69000, 187.
11.72000, 167.
11.75000, 148.
11.78000, 158.
11.81000, 173.
11.84000, 156.
11.87000, 165.
11.90000, 193.
11.93000, 196.
11.96000, 159.
11.99000, 160.
12.02000, 139.
12.05000, 164.
12.08000, 176.
12.11000, 189.
12.14000, 160.
12.17000, 163.
12.20000, 162.
12.23000, 176.
12.26000, 160.
12.29000, 154.
12.32000, 156.
12.35000, 171.
12.38000, 151.
12.41000, 178.
12.44000, 175.
12.47000, 152.
12.50000, 177.
12.53000, 181.
12.56000, 185.
12.59000, 194.
12.62000, 194.
12.65000, 199.
12.68000, 161.
12.71000, 170.
12.74000, 202.
12.77000, 184.
12.80000, 182.
12.83000, 168.
12.86000, 189.
12.89000, 177.
12.92000, 195.
12.95000, 167.
12.98000, 167.
13.01000, 163.
13.04000, 189.
13.07000, 198.
13.10000, 159.
13.13000, 183.
13.16000, 177.
13.19000, 178.
13.22000, 179.
13.25000, 177.
13.28000, 190.
13.31000, 185.
13.34000, 190.
13.37000, 210.
13.40000, 209.
13.43000, 170.
13.46000, 183.
13.49000, 184.
13.52000, 150.
13.55000, 176.
13.58000, 175.
13.61000, 165.
13.64000, 191.
13.67000, 164.
13.70000, 165.
13.73000, 180.
13.76000, 179.
13.79000, 172.
13.82000, 163.
13.85000, 159.
13.88000, 184.
13.91000, 157.
13.94000, 210.
13.97000, 238.
14.00000, 287.
14.03000, 320.
14.06000, 372.
14.09000, 479.
14.12000, 483.
14.15000, 471.
14.18000, 404.
14.21000, 393.
14.24000, 316.
14.27000, 253.
14.30000, 192.
14.33000, 176.
14.36000, 192.
14.39000, 162.
14.42000, 185.
14.45000, 186.
14.48000, 168.
14.51000, 166.
14.54000, 164.
14.57000, 173.
14.60000, 152.
14.63000, 167.
14.66000, 175.
14.69000, 170.
14.72000, 172.
14.75000, 154.
14.78000, 169.
14.81000, 166.
14.84000, 179.
14.87000, 192.
14.90000, 172.
14.93000, 190.
14.96000, 180.
14.99000, 175.
15.02000, 176.
15.05000, 160.
15.08000, 197.
15.11000, 201.
15.14000, 147.
15.17000, 165.
15.20000, 170.
15.23000, 194.
15.26000, 165.
15.29000, 160.
15.32000, 158.
15.35000, 164.
15.38000, 145.
15.41000, 178.
15.44000, 177.
15.47000, 177.
15.50000, 160.
15.53000, 187.
15.56000, 209.
15.59000, 238.
15.62000, 276.
15.65000, 284.
15.68000, 351.
15.71000, 346.
15.74000, 366.
15.77000, 365.
15.80000, 297.
15.83000, 320.
15.86000, 299.
15.89000, 265.
15.92000, 202.
15.95000, 162.
15.98000, 182.
16.01000, 182.
16.04000, 151.
16.07000, 185.
16.10000, 188.
16.13000, 171.
16.16000, 189.
16.19000, 172.
16.22000, 155.
16.25000, 148.
16.28000, 131.
16.31000, 182.
16.34000, 169.
16.37000, 168.
16.40000, 182.
16.43000, 172.
16.46000, 166.
16.49000, 182.
16.52000, 163.
16.55000, 162.
16.58000, 185.
16.61000, 166.
16.64000, 210.
16.67000, 183.
16.70000, 181.
16.73000, 168.
16.76000, 165.
16.79000, 175.
16.82000, 181.
16.85000, 166.
16.88000, 185.
16.91000, 157.
16.94000, 157.
16.97000, 188.
17.00000, 183.
17.03000, 188.
17.06000, 169.
17.09000, 184.
17.12000, 186.
17.15000, 183.
17.18000, 167.
17.21000, 170.
17.24000, 189.
17.27000, 172.
17.30000, 176.
17.33000, 184.
17.36000, 205.
17.39000, 201.
17.42000, 205.
17.45000, 201.
17.48000, 201.
17.51000, 221.
17.54000, 207.
17.57000, 215.
17.60000, 188.
17.63000, 229.
17.66000, 248.
17.69000, 228.
17.72000, 213.
17.75000, 231.
17.78000, 208.
17.81000, 207.
17.84000, 229.
17.87000, 224.
17.90000, 220.
17.93000, 235.
17.96000, 225.
17.99000, 276.
18.02000, 254.
18.05000, 247.
18.08000, 231.
18.11000, 272.
18.14000, 297.
18.17000, 326.
18.20000, 272.
18.23000, 302.
18.26000, 325.
18.29000, 351.
18.32000, 367.
18.35000, 395.
18.38000, 448.
18.41000, 493.
18.44000, 541.
18.47000, 564.
18.50000, 647.
18.53000, 686.
18.56000, 757.
18.59000, 788.
18.62000, 840.
18.65000, 903.
18.68000, 966.
18.71000, 981.
18.74000, 1123.
18.77000, 1045.
18.80000, 972.
18.83000, 1053.
18.86000, 1048.
18.89000, 975.
18.92000, 955.
18.95000, 919.
18.98000, 903.
19.01000, 848.
19.04000, 742.
19.07000, 666.
19.10000, 611.
19.13000, 607.
19.16000, 562.
19.19000, 454.
19.22000, 464.
19.25000, 387.
19.28000, 364.
19.31000, 344.
19.34000, 333.
19.37000, 312.
19.40000, 304.
19.43000, 252.
19.46000, 275.
19.49000, 265.
19.52000, 268.
19.55000, 264.
19.58000, 233.
19.61000, 208.
19.64000, 207.
19.67000, 199.
19.70000, 191.
19.73000, 209.
19.76000, 164.
19.79000, 207.
19.82000, 214.
19.85000, 200.
19.88000, 204.
19.91000, 256.
19.94000, 321.
19.97000, 336.
20.00000, 375.
20.03000, 454.
20.06000, 455.
20.09000, 531.
20.12000, 555.
20.15000, 599.
20.18000, 561.
20.21000, 504.
20.24000, 437.
20.27000, 396.
20.30000, 368.
20.33000, 271.
20.36000, 200.
20.39000, 193.
20.42000, 185.
20.45000, 178.
20.48000, 170.
20.51000, 145.
20.54000, 213.
20.57000, 164.
20.60000, 187.
20.63000, 214.
20.66000, 223.
20.69000, 212.
20.72000, 232.
20.75000, 245.
20.78000, 209.
20.81000, 235.
20.84000, 264.
20.87000, 290.
20.90000, 289.
20.93000, 272.
20.96000, 240.
20.99000, 304.
21.02000, 293.
21.05000, 255.
21.08000, 271.
21.11000, 262.
21.14000, 257.
21.17000, 285.
21.20000, 277.
21.23000, 251.
21.26000, 228.
21.29000, 252.
21.32000, 173.
21.35000, 210.
21.38000, 181.
21.41000, 174.
21.44000, 171.
21.47000, 190.
21.50000, 160.
21.53000, 149.
21.56000, 170.
21.59000, 166.
21.62000, 167.
21.65000, 146.
21.68000, 106.
21.71000, 134.
21.74000, 139.
21.77000, 116.
21.80000, 115.
21.83000, 108.
21.86000, 121.
21.89000, 112.
21.92000, 107.
21.95000, 91.
21.98000, 105.
22.01000, 91.
22.04000, 110.
22.07000, 90.
22.10000, 120.
22.13000, 116.
22.16000, 99.
22.19000, 111.
22.22000, 113.
22.25000, 106.
22.28000, 100.
22.31000, 98.
22.34000, 91.
22.37000, 96.
22.40000, 84.
22.43000, 95.
22.46000, 97.
22.49000, 107.
22.52000, 122.
22.55000, 116.
22.58000, 129.
22.61000, 153.
22.64000, 149.
22.67000, 147.
22.70000, 128.
22.73000, 162.
22.76000, 118.
22.79000, 134.
22.82000, 118.
22.85000, 103.
22.88000, 98.
22.91000, 80.
22.94000, 92.
22.97000, 69.
23.00000, 101.
23.03000, 82.
23.06000, 84.
23.09000, 85.
23.12000, 69.
23.15000, 102.
23.18000, 94.
23.21000, 90.
23.24000, 81.
23.27000, 90.
23.30000, 81.
23.33000, 68.
23.36000, 70.
23.39000, 76.
23.42000, 95.
23.45000, 71.
23.48000, 68.
23.51000, 67.
23.54000, 74.
23.57000, 71.
23.60000, 76.
23.63000, 76.
23.66000, 68.
23.69000, 71.
23.72000, 70.
23.75000, 88.
23.78000, 73.
23.81000, 90.
23.84000, 81.
23.87000, 61.
23.90000, 66.
23.93000, 61.
23.96000, 77.
23.99000, 72.
24.02000, 75.
24.05000, 56.
24.08000, 66.
24.11000, 73.
24.14000, 62.
24.17000, 82.
24.20000, 64.
24.23000, 78.
24.26000, 64.
24.29000, 65.
24.32000, 65.
24.35000, 84.
24.38000, 93.
24.41000, 81.
24.44000, 69.
24.47000, 66.
24.50000, 76.
24.53000, 65.
24.56000, 70.
24.59000, 81.
24.62000, 70.
24.65000, 73.
24.68000, 69.
24.71000, 65.
24.74000, 70.
24.77000, 63.
24.80000, 78.
24.83000, 69.
24.86000, 75.
24.89000, 68.
24.92000, 72.
24.95000, 70.
24.98000, 72.
25.01000, 71.
25.04000, 85.
25.07000, 72.
25.10000, 97.
25.13000, 74.
25.16000, 77.
25.19000, 79.
25.22000, 99.
25.25000, 74.
25.28000, 77.
25.31000, 64.
25.34000, 86.
25.37000, 72.
25.40000, 77.
25.43000, 69.
25.46000, 60.
25.49000, 67.
25.52000, 84.
25.55000, 76.
25.58000, 78.
25.61000, 65.
25.64000, 72.
25.67000, 45.
25.70000, 49.
25.73000, 61.
25.76000, 69.
25.79000, 49.
25.82000, 52.
25.85000, 64.
25.88000, 68.
25.91000, 62.
25.94000, 84.
25.97000, 68.
26.00000, 58.
26.03000, 59.
26.06000, 68.
26.09000, 65.
26.12000, 45.
26.15000, 74.
26.18000, 65.
26.21000, 58.
26.24000, 70.
26.27000, 65.
26.30000, 75.
26.33000, 53.
26.36000, 67.
26.39000, 53.
26.42000, 54.
26.45000, 64.
26.48000, 52.
26.51000, 64.
26.54000, 73.
26.57000, 68.
26.60000, 59.
26.63000, 53.
26.66000, 52.
26.69000, 60.
26.72000, 51.
26.75000, 43.
26.78000, 55.
26.81000, 46.
26.84000, 62.
26.87000, 57.
26.90000, 49.
26.93000, 77.
26.96000, 58.
26.99000, 56.
27.02000, 63.
27.05000, 48.
27.08000, 54.
27.11000, 53.
27.14000, 39.
27.17000, 59.
27.20000, 59.
27.23000, 47.
27.26000, 54.
27.29000, 59.
27.32000, 57.
27.35000, 51.
27.38000, 51.
27.41000, 49.
27.44000, 57.
27.47000, 58.
27.50000, 43.
27.53000, 55.
27.56000, 62.
27.59000, 65.
27.62000, 44.
27.65000, 52.
27.68000, 54.
27.71000, 47.
27.74000, 52.
27.77000, 60.
27.80000, 47.
27.83000, 51.
27.86000, 50.
27.89000, 60.
27.92000, 56.
27.95000, 57.
27.98000, 52.
28.01000, 38.
28.04000, 60.
28.07000, 34.
28.10000, 57.
28.13000, 49.
28.16000, 48.
28.19000, 48.
28.22000, 41.
28.25000, 50.
28.28000, 46.
28.31000, 40.
28.34000, 34.
28.37000, 40.
28.40000, 54.
28.43000, 55.
28.46000, 40.
28.49000, 52.
28.52000, 49.
28.55000, 41.
28.58000, 46.
28.61000, 38.
28.64000, 51.
28.67000, 38.
28.70000, 53.
28.73000, 51.
28.76000, 41.
28.79000, 53.
28.82000, 55.
28.85000, 43.
28.88000, 39.
28.91000, 40.
28.94000, 45.
28.97000, 45.
29.00000, 39.
29.03000, 47.
29.06000, 49.
29.09000, 37.
29.12000, 35.
29.15000, 55.
29.18000, 48.
29.21000, 46.
29.24000, 41.
29.27000, 46.
29.30000, 38.
29.33000, 57.
29.36000, 48.
29.39000, 42.
29.42000, 41.
29.45000, 53.
29.48000, 45.
29.51000, 31.
29.54000, 31.
29.57000, 38.
29.60000, 42.
29.63000, 36.
29.66000, 40.
29.69000, 45.
29.72000, 43.
29.75000, 34.
29.78000, 40.
29.81000, 34.
29.84000, 38.
29.87000, 49.
29.90000, 42.
29.93000, 45.
29.96000, 38.
29.99000, 35.
30.02000, 33.
30.05000, 38.
30.08000, 33.
30.11000, 44.
30.14000, 34.
30.17000, 35.
30.20000, 32.
30.23000, 38.
30.26000, 34.
30.29000, 50.
30.32000, 52.
30.35000, 48.
30.38000, 25.
30.41000, 35.
30.44000, 39.
30.47000, 39.
30.50000, 30.
30.53000, 43.
30.56000, 38.
30.59000, 45.
30.62000, 35.
30.65000, 32.
30.68000, 41.
30.71000, 34.
30.74000, 29.
30.77000, 37.
30.80000, 43.
30.83000, 30.
30.86000, 36.
30.89000, 37.
30.92000, 41.
30.95000, 27.
30.98000, 35.
31.01000, 28.
31.04000, 35.
31.07000, 31.
31.10000, 32.
31.13000, 41.
31.16000, 34.
31.19000, 39.
31.22000, 29.
31.25000, 35.
31.28000, 34.
31.31000, 30.
31.34000, 27.
31.37000, 30.
31.40000, 36.
31.43000, 31.
31.46000, 41.
31.49000, 28.
31.52000, 40.
31.55000, 38.
31.58000, 28.
31.61000, 30.
31.64000, 35.
31.67000, 36.
31.70000, 30.
31.73000, 33.
31.76000, 42.
31.79000, 36.
31.82000, 33.
31.85000, 23.
31.88000, 28.
31.91000, 28.
31.94000, 40.
31.97000, 31.
32.00000, 47.
32.03000, 38.
32.06000, 29.
32.09000, 35.
32.12000, 49.
32.15000, 27.
32.18000, 38.
32.21000, 31.
32.24000, 25.
32.27000, 35.
32.30000, 29.
32.33000, 24.
32.36000, 28.
32.39000, 30.
32.42000, 30.
32.45000, 22.
32.48000, 26.
32.51000, 26.
32.54000, 26.
32.57000, 25.
32.60000, 19.
32.63000, 27.
32.66000, 21.
32.69000, 25.
32.72000, 21.
32.75000, 28.
32.78000, 28.
32.81000, 18.
32.84000, 21.
32.87000, 21.
32.90000, 35.
32.93000, 20.
32.96000, 29.
32.99000, 15.
33.02000, 30.
33.05000, 29.
33.08000, 16.
33.11000, 20.
33.14000, 27.
33.17000, 21.
33.20000, 26.
33.23000, 25.
33.26000, 38.
33.29000, 22.
33.32000, 22.
33.35000, 26.
33.38000, 25.
33.41000, 12.
33.44000, 23.
33.47000, 25.
33.50000, 16.
33.53000, 27.
33.56000, 22.
33.59000, 28.
33.62000, 24.
33.65000, 18.
33.68000, 20.
33.71000, 18.
33.74000, 19.
33.77000, 25.
33.80000, 24.
33.83000, 28.
33.86000, 20.
33.89000, 32.
33.92000, 22.
33.95000, 33.
33.98000, 31.
34.01000, 26.
34.04000, 27.
34.07000, 12.
34.10000, 22.
34.13000, 25.
34.16000, 17.
34.19000, 25.
34.22000, 20.
34.25000, 25.
34.28000, 16.
34.31000, 9.
34.34000, 32.
34.37000, 22.
34.40000, 16.
34.43000, 19.
34.46000, 29.
34.49000, 23.
34.52000, 22.
34.55000, 32.
34.58000, 24.
34.61000, 18.
34.64000, 21.
34.67000, 15.
34.70000, 17.
34.73000, 19.
34.76000, 19.
34.79000, 20.
34.82000, 18.
34.85000, 16.
34.88000, 22.
34.91000, 17.
34.94000, 21.
34.97000, 21.
35.00000, 15.
35.03000, 20.
35.06000, 24.
35.09000, 23.
35.12000, 19.
35.15000, 20.
35.18000, 22.
35.21000, 19.
35.24000, 16.
35.27000, 19.
35.30000, 21.
35.33000, 13.
35.36000, 27.
35.39000, 13.
35.42000, 17.
35.45000, 13.
35.48000, 18.
35.51000, 15.
35.54000, 19.
35.57000, 22.
35.60000, 16.
35.63000, 15.
35.66000, 14.
35.69000, 18.
35.72000, 14.
35.75000, 16.
35.78000, 16.
35.81000, 14.
35.84000, 10.
35.87000, 9.
35.90000, 19.
35.93000, 12.
35.96000, 6.
35.99000, 12.
36.02000, 18.
36.05000, 11.
36.08000, 21.
36.11000, 15.
36.14000, 23.
36.17000, 10.
36.20000, 13.
36.23000, 14.
36.26000, 15.
36.29000, 17.
36.32000, 16.
36.35000, 18.
36.38000, 11.
36.41000, 18.
36.44000, 12.
36.47000, 16.
36.50000, 14.
36.53000, 13.
36.56000, 13.
36.59000, 9.
36.62000, 14.
36.65000, 16.
36.68000, 15.
36.71000, 23.
36.74000, 12.
36.77000, 20.
36.80000, 9.
36.83000, 12.
36.86000, 13.
36.89000, 14.
36.92000, 12.
36.95000, 11.
36.98000, 9.
37.01000, 11.
37.04000, 5.
37.07000, 13.
37.10000, 13.
37.13000, 11.
37.16000, 13.
37.19000, 11.
37.22000, 14.
37.25000, 6.
37.28000, 14.
37.31000, 14.
37.34000, 16.
37.37000, 11.
37.40000, 8.
37.43000, 13.
37.46000, 13.
37.49000, 10.
37.52000, 12.
37.55000, 13.
37.58000, 11.
37.61000, 8.
37.64000, 8.
37.67000, 5.
37.70000, 16.
37.73000, 13.
37.76000, 16.
37.79000, 9.
37.82000, 15.
37.85000, 12.
37.88000, 18.
37.91000, 12.
37.94000, 9.
37.97000, 9.
38.00000, 9.
38.03000, 12.
38.06000, 16.
38.09000, 6.
38.12000, 17.
38.15000, 12.
38.18000, 11.
38.21000, 9.
38.24000, 14.
38.27000, 9.
38.30000, 9.
38.33000, 6.
38.36000, 13.
38.39000, 13.
38.42000, 13.
38.45000, 12.
38.48000, 15.
38.51000, 6.
38.54000, 6.
38.57000, 11.
38.60000, 6.
38.63000, 8.
38.66000, 9.
38.69000, 15.
38.72000, 11.
38.75000, 11.
38.78000, 6.
38.81000, 6.
38.84000, 7.
38.87000, 8.
38.90000, 5.
38.93000, 8.
38.96000, 12.
38.99000, 8.
39.02000, 7.
39.05000, 8.
39.08000, 4.
39.11000, 11.
39.14000, 7.
39.17000, 2.
39.20000, 4.
39.23000, 10.
39.26000, 7.
39.29000, 5.
39.32000, 8.
39.35000, 11.
39.38000, 10.
39.41000, 7.
39.44000, 7.
39.47000, 5.
39.50000, 5.
39.53000, 4.
39.56000, 8.
39.59000, 5.
39.62000, 5.
39.65000, 2.
39.68000, 2.
39.71000, 10.
39.74000, 4.
39.77000, 7.
39.80000, 3.
39.83000, 8.
39.86000, 2.
39.89000, 5.
39.92000, 5.
39.95000, 3.
39.98000, 4.
40.01000, 2.
40.04000, 6.
40.07000, 2.
40.10000, 4.
40.13000, 9.
40.16000, 8.
40.19000, 5.
40.22000, 7.
40.25000, 2.
40.28000, 4.
40.31000, 4.
40.34000, 5.
40.37000, 9.
40.40000, 4.
40.43000, 6.
40.46000, 0.
40.49000, 4.
40.52000, 6.
40.55000, 0.
#ENDOFDATA   :