File: sample_data/data/Spectrum value from standard/LKSD1/Spectrum 8.txt
#FORMAT      : EMSA/MAS Spectral Data File
#VERSION     : 1.0
#TITLE       : Spectrum 8
#DATE        : 21-AUG-2025
#TIME        : 15:12
#OWNER       : XGT7200
#NPOINTS     : 4096.
#NCOLUMNS    : 1.
#XUNITS      : keV
#YUNITS      : counts
#DATATYPE    : XY
#XPERCHAN    : 0.0100000
#OFFSET      : -0.400000
#SIGNALTYPE  : EDS
#CHOFFSET    : 40.0000
#LIVETIME    : 30
#REALTIME    : 39.6359
#BEAMKV      : 50.0000
#PROBECUR    : 729000.
#MAGCAM      : 100.000
#XTILTSTGE   : 0.0
#AZIMANGLE   : 0.0
#ELEVANGLE   : 45.0
#XPOSITION mm: 0.0000
#YPOSITION mm: 0.0000
#ZPOSITION mm: 0.0000
##OXINSTPT   : 4
##OXINSTSTROB: 72.00
#SPECTRUM    : Spectral Data Starts Here
-0.40000, 0.
-0.37000, 0.
-0.34000, 0.
-0.31000, 0.
-0.28000, 0.
-0.25000, 0.
-0.22000, 0.
-0.19000, 0.
-0.16000, 0.
-0.13000, 0.
-0.10000, 0.
-0.07000, 0.
-0.04000, 0.
-0.01000, 0.
0.02000, 0.
0.05000, 0.
0.08000, 0.
0.11000, 0.
0.14000, 0.
0.17000, 0.
0.20000, 0.
0.23000, 0.
0.26000, 0.
0.29000, 0.
0.32000, 1.
0.35000, 3.
0.38000, 10.
0.41000, 38.
0.44000, 48.
0.47000, 37.
0.50000, 54.
0.53000, 60.
0.56000, 67.
0.59000, 79.
0.62000, 62.
0.65000, 54.
0.68000, 43.
0.71000, 57.
0.74000, 45.
0.77000, 44.
0.80000, 47.
0.83000, 44.
0.86000, 41.
0.89000, 33.
0.92000, 41.
0.95000, 42.
0.98000, 40.
1.01000, 39.
1.04000, 50.
1.07000, 49.
1.10000, 57.
1.13000, 50.
1.16000, 40.
1.19000, 47.
1.22000, 59.
1.25000, 72.
1.28000, 68.
1.31000, 43.
1.34000, 35.
1.37000, 37.
1.40000, 55.
1.43000, 154.
1.46000, 347.
1.49000, 460.
1.52000, 321.
1.55000, 206.
1.58000, 107.
1.61000, 93.
1.64000, 253.
1.67000, 962.
1.70000, 2443.
1.73000, 4149.
1.76000, 4296.
1.79000, 2622.
1.82000, 1057.
1.85000, 420.
1.88000, 184.
1.91000, 133.
1.94000, 133.
1.97000, 147.
2.00000, 80.
2.03000, 67.
2.06000, 73.
2.09000, 43.
2.12000, 59.
2.15000, 45.
2.18000, 81.
2.21000, 179.
2.24000, 493.
2.27000, 1097.
2.30000, 1504.
2.33000, 1399.
2.36000, 892.
2.39000, 376.
2.42000, 197.
2.45000, 154.
2.48000, 129.
2.51000, 136.
2.54000, 102.
2.57000, 90.
2.60000, 172.
2.63000, 241.
2.66000, 364.
2.69000, 498.
2.72000, 431.
2.75000, 394.
2.78000, 341.
2.81000, 423.
2.84000, 436.
2.87000, 378.
2.90000, 265.
2.93000, 157.
2.96000, 129.
2.99000, 94.
3.02000, 73.
3.05000, 56.
3.08000, 55.
3.11000, 50.
3.14000, 44.
3.17000, 43.
3.20000, 78.
3.23000, 123.
3.26000, 238.
3.29000, 414.
3.32000, 471.
3.35000, 391.
3.38000, 216.
3.41000, 118.
3.44000, 53.
3.47000, 45.
3.50000, 79.
3.53000, 147.
3.56000, 364.
3.59000, 1061.
3.62000, 2614.
3.65000, 5022.
3.68000, 7267.
3.71000, 6953.
3.74000, 4994.
3.77000, 2652.
3.80000, 887.
3.83000, 275.
3.86000, 126.
3.89000, 122.
3.92000, 249.
3.95000, 521.
3.98000, 801.
4.01000, 1116.
4.04000, 965.
4.07000, 638.
4.10000, 363.
4.13000, 132.
4.16000, 46.
4.19000, 25.
4.22000, 28.
4.25000, 36.
4.28000, 33.
4.31000, 31.
4.34000, 26.
4.37000, 41.
4.40000, 83.
4.43000, 178.
4.46000, 283.
4.49000, 387.
4.52000, 429.
4.55000, 342.
4.58000, 208.
4.61000, 126.
4.64000, 85.
4.67000, 87.
4.70000, 58.
4.73000, 49.
4.76000, 42.
4.79000, 42.
4.82000, 69.
4.85000, 65.
4.88000, 83.
4.91000, 101.
4.94000, 105.
4.97000, 104.
5.00000, 77.
5.03000, 58.
5.06000, 38.
5.09000, 39.
5.12000, 56.
5.15000, 36.
5.18000, 58.
5.21000, 47.
5.24000, 56.
5.27000, 62.
5.30000, 64.
5.33000, 64.
5.36000, 60.
5.39000, 57.
5.42000, 65.
5.45000, 72.
5.48000, 60.
5.51000, 70.
5.54000, 74.
5.57000, 53.
5.60000, 60.
5.63000, 47.
5.66000, 47.
5.69000, 48.
5.72000, 60.
5.75000, 67.
5.78000, 84.
5.81000, 120.
5.84000, 165.
5.87000, 233.
5.90000, 232.
5.93000, 221.
5.96000, 142.
5.99000, 125.
6.02000, 80.
6.05000, 95.
6.08000, 61.
6.11000, 85.
6.14000, 95.
6.17000, 106.
6.20000, 156.
6.23000, 359.
6.26000, 861.
6.29000, 2136.
6.32000, 4389.
6.35000, 7250.
6.38000, 9427.
6.41000, 9989.
6.44000, 7917.
6.47000, 5301.
6.50000, 2706.
6.53000, 1092.
6.56000, 421.
6.59000, 169.
6.62000, 120.
6.65000, 93.
6.68000, 98.
6.71000, 81.
6.74000, 102.
6.77000, 100.
6.80000, 82.
6.83000, 97.
6.86000, 141.
6.89000, 183.
6.92000, 300.
6.95000, 583.
6.98000, 907.
7.01000, 1401.
7.04000, 1664.
7.07000, 1558.
7.10000, 1237.
7.13000, 914.
7.16000, 484.
7.19000, 249.
7.22000, 119.
7.25000, 73.
7.28000, 82.
7.31000, 68.
7.34000, 74.
7.37000, 71.
7.40000, 66.
7.43000, 84.
7.46000, 96.
7.49000, 89.
7.52000, 64.
7.55000, 74.
7.58000, 65.
7.61000, 80.
7.64000, 77.
7.67000, 80.
7.70000, 72.
7.73000, 86.
7.76000, 76.
7.79000, 81.
7.82000, 103.
7.85000, 76.
7.88000, 83.
7.91000, 109.
7.94000, 103.
7.97000, 110.
8.00000, 114.
8.03000, 114.
8.06000, 126.
8.09000, 155.
8.12000, 131.
8.15000, 116.
8.18000, 126.
8.21000, 108.
8.24000, 112.
8.27000, 132.
8.30000, 100.
8.33000, 104.
8.36000, 123.
8.39000, 133.
8.42000, 103.
8.45000, 114.
8.48000, 165.
8.51000, 192.
8.54000, 247.
8.57000, 295.
8.60000, 324.
8.63000, 320.
8.66000, 335.
8.69000, 250.
8.72000, 194.
8.75000, 173.
8.78000, 150.
8.81000, 124.
8.84000, 139.
8.87000, 110.
8.90000, 132.
8.93000, 113.
8.96000, 114.
8.99000, 125.
9.02000, 122.
9.05000, 127.
9.08000, 112.
9.11000, 117.
9.14000, 133.
9.17000, 139.
9.20000, 139.
9.23000, 122.
9.26000, 146.
9.29000, 141.
9.32000, 153.
9.35000, 114.
9.38000, 154.
9.41000, 154.
9.44000, 121.
9.47000, 144.
9.50000, 170.
9.53000, 158.
9.56000, 172.
9.59000, 199.
9.62000, 136.
9.65000, 157.
9.68000, 140.
9.71000, 129.
9.74000, 146.
9.77000, 126.
9.80000, 127.
9.83000, 127.
9.86000, 127.
9.89000, 142.
9.92000, 146.
9.95000, 135.
9.98000, 174.
10.01000, 143.
10.04000, 140.
10.07000, 119.
10.10000, 153.
10.13000, 157.
10.16000, 144.
10.19000, 161.
10.22000, 137.
10.25000, 147.
10.28000, 148.
10.31000, 155.
10.34000, 151.
10.37000, 154.
10.40000, 165.
10.43000, 157.
10.46000, 152.
10.49000, 199.
10.52000, 192.
10.55000, 191.
10.58000, 206.
10.61000, 194.
10.64000, 180.
10.67000, 156.
10.70000, 169.
10.73000, 146.
10.76000, 155.
10.79000, 136.
10.82000, 178.
10.85000, 162.
10.88000, 167.
10.91000, 147.
10.94000, 156.
10.97000, 150.
11.00000, 155.
11.03000, 145.
11.06000, 169.
11.09000, 160.
11.12000, 148.
11.15000, 163.
11.18000, 152.
11.21000, 149.
11.24000, 174.
11.27000, 154.
11.30000, 148.
11.33000, 157.
11.36000, 162.
11.39000, 155.
11.42000, 166.
11.45000, 159.
11.48000, 162.
11.51000, 152.
11.54000, 176.
11.57000, 174.
11.60000, 169.
11.63000, 167.
11.66000, 142.
11.69000, 171.
11.72000, 180.
11.75000, 171.
11.78000, 167.
11.81000, 167.
11.84000, 171.
11.87000, 181.
11.90000, 189.
11.93000, 186.
11.96000, 156.
11.99000, 180.
12.02000, 167.
12.05000, 160.
12.08000, 160.
12.11000, 161.
12.14000, 176.
12.17000, 183.
12.20000, 177.
12.23000, 156.
12.26000, 173.
12.29000, 199.
12.32000, 173.
12.35000, 167.
12.38000, 180.
12.41000, 171.
12.44000, 191.
12.47000, 196.
12.50000, 173.
12.53000, 187.
12.56000, 199.
12.59000, 191.
12.62000, 180.
12.65000, 209.
12.68000, 185.
12.71000, 196.
12.74000, 207.
12.77000, 182.
12.80000, 201.
12.83000, 204.
12.86000, 184.
12.89000, 180.
12.92000, 186.
12.95000, 174.
12.98000, 175.
13.01000, 186.
13.04000, 181.
13.07000, 169.
13.10000, 170.
13.13000, 153.
13.16000, 170.
13.19000, 198.
13.22000, 195.
13.25000, 179.
13.28000, 195.
13.31000, 231.
13.34000, 201.
13.37000, 225.
13.40000, 189.
13.43000, 207.
13.46000, 213.
13.49000, 208.
13.52000, 197.
13.55000, 180.
13.58000, 151.
13.61000, 173.
13.64000, 191.
13.67000, 190.
13.70000, 173.
13.73000, 192.
13.76000, 166.
13.79000, 179.
13.82000, 182.
13.85000, 156.
13.88000, 150.
13.91000, 202.
13.94000, 225.
13.97000, 281.
14.00000, 295.
14.03000, 341.
14.06000, 396.
14.09000, 414.
14.12000, 461.
14.15000, 467.
14.18000, 415.
14.21000, 361.
14.24000, 291.
14.27000, 246.
14.30000, 211.
14.33000, 196.
14.36000, 164.
14.39000, 183.
14.42000, 156.
14.45000, 184.
14.48000, 183.
14.51000, 174.
14.54000, 191.
14.57000, 200.
14.60000, 177.
14.63000, 173.
14.66000, 166.
14.69000, 172.
14.72000, 168.
14.75000, 176.
14.78000, 167.
14.81000, 198.
14.84000, 183.
14.87000, 191.
14.90000, 191.
14.93000, 210.
14.96000, 196.
14.99000, 178.
15.02000, 172.
15.05000, 190.
15.08000, 192.
15.11000, 193.
15.14000, 205.
15.17000, 172.
15.20000, 174.
15.23000, 169.
15.26000, 177.
15.29000, 176.
15.32000, 165.
15.35000, 142.
15.38000, 164.
15.41000, 181.
15.44000, 173.
15.47000, 167.
15.50000, 177.
15.53000, 174.
15.56000, 183.
15.59000, 174.
15.62000, 216.
15.65000, 255.
15.68000, 268.
15.71000, 299.
15.74000, 283.
15.77000, 289.
15.80000, 277.
15.83000, 264.
15.86000, 231.
15.89000, 216.
15.92000, 215.
15.95000, 213.
15.98000, 172.
16.01000, 167.
16.04000, 184.
16.07000, 195.
16.10000, 181.
16.13000, 181.
16.16000, 164.
16.19000, 148.
16.22000, 172.
16.25000, 165.
16.28000, 142.
16.31000, 150.
16.34000, 147.
16.37000, 156.
16.40000, 171.
16.43000, 150.
16.46000, 155.
16.49000, 170.
16.52000, 181.
16.55000, 183.
16.58000, 162.
16.61000, 172.
16.64000, 183.
16.67000, 179.
16.70000, 150.
16.73000, 174.
16.76000, 170.
16.79000, 154.
16.82000, 170.
16.85000, 160.
16.88000, 148.
16.91000, 167.
16.94000, 153.
16.97000, 175.
17.00000, 171.
17.03000, 157.
17.06000, 155.
17.09000, 160.
17.12000, 173.
17.15000, 169.
17.18000, 189.
17.21000, 169.
17.24000, 201.
17.27000, 178.
17.30000, 173.
17.33000, 209.
17.36000, 198.
17.39000, 174.
17.42000, 174.
17.45000, 206.
17.48000, 180.
17.51000, 203.
17.54000, 200.
17.57000, 227.
17.60000, 198.
17.63000, 197.
17.66000, 208.
17.69000, 186.
17.72000, 214.
17.75000, 225.
17.78000, 214.
17.81000, 220.
17.84000, 212.
17.87000, 227.
17.90000, 228.
17.93000, 227.
17.96000, 242.
17.99000, 258.
18.02000, 249.
18.05000, 262.
18.08000, 266.
18.11000, 259.
18.14000, 294.
18.17000, 305.
18.20000, 324.
18.23000, 291.
18.26000, 325.
18.29000, 359.
18.32000, 387.
18.35000, 416.
18.38000, 442.
18.41000, 453.
18.44000, 540.
18.47000, 628.
18.50000, 645.
18.53000, 727.
18.56000, 766.
18.59000, 847.
18.62000, 887.
18.65000, 968.
18.68000, 1001.
18.71000, 915.
18.74000, 1057.
18.77000, 984.
18.80000, 1084.
18.83000, 1008.
18.86000, 1027.
18.89000, 973.
18.92000, 934.
18.95000, 892.
18.98000, 877.
19.01000, 710.
19.04000, 751.
19.07000, 668.
19.10000, 611.
19.13000, 567.
19.16000, 528.
19.19000, 438.
19.22000, 415.
19.25000, 389.
19.28000, 379.
19.31000, 326.
19.34000, 314.
19.37000, 296.
19.40000, 285.
19.43000, 278.
19.46000, 253.
19.49000, 237.
19.52000, 258.
19.55000, 222.
19.58000, 240.
19.61000, 222.
19.64000, 214.
19.67000, 209.
19.70000, 195.
19.73000, 215.
19.76000, 180.
19.79000, 198.
19.82000, 173.
19.85000, 194.
19.88000, 231.
19.91000, 250.
19.94000, 269.
19.97000, 309.
20.00000, 333.
20.03000, 435.
20.06000, 504.
20.09000, 530.
20.12000, 600.
20.15000, 595.
20.18000, 579.
20.21000, 504.
20.24000, 491.
20.27000, 386.
20.30000, 307.
20.33000, 257.
20.36000, 228.
20.39000, 194.
20.42000, 190.
20.45000, 186.
20.48000, 176.
20.51000, 181.
20.54000, 167.
20.57000, 182.
20.60000, 185.
20.63000, 190.
20.66000, 211.
20.69000, 217.
20.72000, 237.
20.75000, 259.
20.78000, 225.
20.81000, 258.
20.84000, 229.
20.87000, 261.
20.90000, 271.
20.93000, 262.
20.96000, 259.
20.99000, 297.
21.02000, 310.
21.05000, 255.
21.08000, 326.
21.11000, 277.
21.14000, 263.
21.17000, 267.
21.20000, 270.
21.23000, 232.
21.26000, 225.
21.29000, 202.
21.32000, 184.
21.35000, 202.
21.38000, 167.
21.41000, 177.
21.44000, 171.
21.47000, 168.
21.50000, 177.
21.53000, 188.
21.56000, 159.
21.59000, 134.
21.62000, 144.
21.65000, 132.
21.68000, 142.
21.71000, 125.
21.74000, 114.
21.77000, 147.
21.80000, 126.
21.83000, 116.
21.86000, 124.
21.89000, 102.
21.92000, 122.
21.95000, 131.
21.98000, 100.
22.01000, 99.
22.04000, 109.
22.07000, 87.
22.10000, 96.
22.13000, 94.
22.16000, 98.
22.19000, 103.
22.22000, 109.
22.25000, 88.
22.28000, 91.
22.31000, 80.
22.34000, 95.
22.37000, 93.
22.40000, 68.
22.43000, 103.
22.46000, 95.
22.49000, 106.
22.52000, 105.
22.55000, 112.
22.58000, 131.
22.61000, 139.
22.64000, 135.
22.67000, 153.
22.70000, 150.
22.73000, 136.
22.76000, 136.
22.79000, 149.
22.82000, 107.
22.85000, 103.
22.88000, 100.
22.91000, 96.
22.94000, 91.
22.97000, 79.
23.00000, 111.
23.03000, 93.
23.06000, 99.
23.09000, 104.
23.12000, 109.
23.15000, 111.
23.18000, 80.
23.21000, 85.
23.24000, 94.
23.27000, 86.
23.30000, 78.
23.33000, 70.
23.36000, 86.
23.39000, 69.
23.42000, 68.
23.45000, 64.
23.48000, 74.
23.51000, 66.
23.54000, 62.
23.57000, 76.
23.60000, 65.
23.63000, 71.
23.66000, 77.
23.69000, 85.
23.72000, 67.
23.75000, 59.
23.78000, 75.
23.81000, 89.
23.84000, 72.
23.87000, 74.
23.90000, 83.
23.93000, 62.
23.96000, 66.
23.99000, 67.
24.02000, 59.
24.05000, 77.
24.08000, 66.
24.11000, 65.
24.14000, 57.
24.17000, 56.
24.20000, 83.
24.23000, 68.
24.26000, 67.
24.29000, 60.
24.32000, 73.
24.35000, 72.
24.38000, 80.
24.41000, 63.
24.44000, 86.
24.47000, 68.
24.50000, 67.
24.53000, 61.
24.56000, 65.
24.59000, 73.
24.62000, 64.
24.65000, 69.
24.68000, 70.
24.71000, 67.
24.74000, 57.
24.77000, 55.
24.80000, 70.
24.83000, 60.
24.86000, 66.
24.89000, 54.
24.92000, 72.
24.95000, 53.
24.98000, 60.
25.01000, 56.
25.04000, 77.
25.07000, 73.
25.10000, 76.
25.13000, 77.
25.16000, 72.
25.19000, 80.
25.22000, 66.
25.25000, 68.
25.28000, 56.
25.31000, 66.
25.34000, 68.
25.37000, 81.
25.40000, 59.
25.43000, 59.
25.46000, 62.
25.49000, 47.
25.52000, 75.
25.55000, 65.
25.58000, 73.
25.61000, 67.
25.64000, 42.
25.67000, 56.
25.70000, 61.
25.73000, 70.
25.76000, 51.
25.79000, 49.
25.82000, 59.
25.85000, 74.
25.88000, 60.
25.91000, 67.
25.94000, 60.
25.97000, 58.
26.00000, 82.
26.03000, 55.
26.06000, 63.
26.09000, 66.
26.12000, 49.
26.15000, 65.
26.18000, 53.
26.21000, 58.
26.24000, 56.
26.27000, 71.
26.30000, 53.
26.33000, 59.
26.36000, 65.
26.39000, 51.
26.42000, 59.
26.45000, 63.
26.48000, 66.
26.51000, 48.
26.54000, 50.
26.57000, 59.
26.60000, 58.
26.63000, 50.
26.66000, 48.
26.69000, 64.
26.72000, 48.
26.75000, 58.
26.78000, 52.
26.81000, 58.
26.84000, 60.
26.87000, 55.
26.90000, 53.
26.93000, 54.
26.96000, 50.
26.99000, 46.
27.02000, 59.
27.05000, 52.
27.08000, 55.
27.11000, 52.
27.14000, 54.
27.17000, 52.
27.20000, 49.
27.23000, 51.
27.26000, 48.
27.29000, 61.
27.32000, 67.
27.35000, 54.
27.38000, 62.
27.41000, 53.
27.44000, 38.
27.47000, 47.
27.50000, 47.
27.53000, 51.
27.56000, 46.
27.59000, 58.
27.62000, 48.
27.65000, 47.
27.68000, 49.
27.71000, 59.
27.74000, 48.
27.77000, 57.
27.80000, 42.
27.83000, 56.
27.86000, 45.
27.89000, 54.
27.92000, 57.
27.95000, 44.
27.98000, 42.
28.01000, 49.
28.04000, 41.
28.07000, 42.
28.10000, 51.
28.13000, 50.
28.16000, 48.
28.19000, 43.
28.22000, 48.
28.25000, 51.
28.28000, 39.
28.31000, 49.
28.34000, 62.
28.37000, 66.
28.40000, 62.
28.43000, 49.
28.46000, 42.
28.49000, 49.
28.52000, 63.
28.55000, 44.
28.58000, 42.
28.61000, 51.
28.64000, 41.
28.67000, 47.
28.70000, 42.
28.73000, 44.
28.76000, 46.
28.79000, 41.
28.82000, 38.
28.85000, 52.
28.88000, 38.
28.91000, 46.
28.94000, 47.
28.97000, 44.
29.00000, 45.
29.03000, 47.
29.06000, 52.
29.09000, 40.
29.12000, 37.
29.15000, 42.
29.18000, 32.
29.21000, 34.
29.24000, 48.
29.27000, 34.
29.30000, 48.
29.33000, 43.
29.36000, 39.
29.39000, 47.
29.42000, 32.
29.45000, 40.
29.48000, 39.
29.51000, 40.
29.54000, 42.
29.57000, 39.
29.60000, 37.
29.63000, 34.
29.66000, 32.
29.69000, 43.
29.72000, 31.
29.75000, 42.
29.78000, 29.
29.81000, 39.
29.84000, 45.
29.87000, 34.
29.90000, 40.
29.93000, 44.
29.96000, 43.
29.99000, 33.
30.02000, 41.
30.05000, 39.
30.08000, 44.
30.11000, 22.
30.14000, 43.
30.17000, 35.
30.20000, 38.
30.23000, 48.
30.26000, 52.
30.29000, 40.
30.32000, 31.
30.35000, 36.
30.38000, 32.
30.41000, 29.
30.44000, 31.
30.47000, 39.
30.50000, 31.
30.53000, 40.
30.56000, 39.
30.59000, 39.
30.62000, 36.
30.65000, 36.
30.68000, 29.
30.71000, 41.
30.74000, 35.
30.77000, 32.
30.80000, 32.
30.83000, 34.
30.86000, 35.
30.89000, 33.
30.92000, 28.
30.95000, 30.
30.98000, 34.
31.01000, 39.
31.04000, 29.
31.07000, 35.
31.10000, 42.
31.13000, 32.
31.16000, 28.
31.19000, 30.
31.22000, 33.
31.25000, 37.
31.28000, 37.
31.31000, 26.
31.34000, 26.
31.37000, 27.
31.40000, 35.
31.43000, 31.
31.46000, 34.
31.49000, 31.
31.52000, 37.
31.55000, 35.
31.58000, 33.
31.61000, 29.
31.64000, 28.
31.67000, 24.
31.70000, 26.
31.73000, 24.
31.76000, 31.
31.79000, 40.
31.82000, 30.
31.85000, 22.
31.88000, 34.
31.91000, 25.
31.94000, 32.
31.97000, 31.
32.00000, 26.
32.03000, 30.
32.06000, 31.
32.09000, 37.
32.12000, 29.
32.15000, 29.
32.18000, 31.
32.21000, 29.
32.24000, 37.
32.27000, 27.
32.30000, 34.
32.33000, 25.
32.36000, 24.
32.39000, 27.
32.42000, 25.
32.45000, 28.
32.48000, 34.
32.51000, 29.
32.54000, 32.
32.57000, 20.
32.60000, 24.
32.63000, 33.
32.66000, 26.
32.69000, 23.
32.72000, 24.
32.75000, 27.
32.78000, 28.
32.81000, 25.
32.84000, 18.
32.87000, 22.
32.90000, 21.
32.93000, 25.
32.96000, 26.
32.99000, 27.
33.02000, 22.
33.05000, 29.
33.08000, 23.
33.11000, 25.
33.14000, 19.
33.17000, 29.
33.20000, 27.
33.23000, 24.
33.26000, 32.
33.29000, 23.
33.32000, 19.
33.35000, 24.
33.38000, 24.
33.41000, 17.
33.44000, 19.
33.47000, 26.
33.50000, 27.
33.53000, 28.
33.56000, 19.
33.59000, 20.
33.62000, 14.
33.65000, 18.
33.68000, 25.
33.71000, 22.
33.74000, 32.
33.77000, 24.
33.80000, 20.
33.83000, 13.
33.86000, 19.
33.89000, 13.
33.92000, 24.
33.95000, 21.
33.98000, 15.
34.01000, 17.
34.04000, 11.
34.07000, 20.
34.10000, 22.
34.13000, 25.
34.16000, 20.
34.19000, 19.
34.22000, 24.
34.25000, 17.
34.28000, 17.
34.31000, 19.
34.34000, 20.
34.37000, 29.
34.40000, 18.
34.43000, 24.
34.46000, 21.
34.49000, 21.
34.52000, 14.
34.55000, 21.
34.58000, 21.
34.61000, 18.
34.64000, 21.
34.67000, 22.
34.70000, 18.
34.73000, 10.
34.76000, 21.
34.79000, 19.
34.82000, 19.
34.85000, 18.
34.88000, 18.
34.91000, 18.
34.94000, 15.
34.97000, 22.
35.00000, 15.
35.03000, 19.
35.06000, 19.
35.09000, 15.
35.12000, 15.
35.15000, 26.
35.18000, 20.
35.21000, 18.
35.24000, 16.
35.27000, 14.
35.30000, 15.
35.33000, 17.
35.36000, 19.
35.39000, 6.
35.42000, 16.
35.45000, 15.
35.48000, 13.
35.51000, 19.
35.54000, 21.
35.57000, 16.
35.60000, 12.
35.63000, 16.
35.66000, 9.
35.69000, 12.
35.72000, 19.
35.75000, 8.
35.78000, 13.
35.81000, 21.
35.84000, 18.
35.87000, 16.
35.90000, 14.
35.93000, 8.
35.96000, 16.
35.99000, 21.
36.02000, 17.
36.05000, 11.
36.08000, 17.
36.11000, 20.
36.14000, 12.
36.17000, 7.
36.20000, 12.
36.23000, 19.
36.26000, 16.
36.29000, 14.
36.32000, 26.
36.35000, 9.
36.38000, 16.
36.41000, 14.
36.44000, 13.
36.47000, 15.
36.50000, 17.
36.53000, 19.
36.56000, 14.
36.59000, 21.
36.62000, 11.
36.65000, 16.
36.68000, 10.
36.71000, 14.
36.74000, 10.
36.77000, 4.
36.80000, 15.
36.83000, 17.
36.86000, 11.
36.89000, 16.
36.92000, 15.
36.95000, 16.
36.98000, 17.
37.01000, 14.
37.04000, 15.
37.07000, 8.
37.10000, 14.
37.13000, 13.
37.16000, 12.
37.19000, 12.
37.22000, 16.
37.25000, 19.
37.28000, 8.
37.31000, 10.
37.34000, 13.
37.37000, 13.
37.40000, 13.
37.43000, 11.
37.46000, 9.
37.49000, 9.
37.52000, 6.
37.55000, 10.
37.58000, 12.
37.61000, 6.
37.64000, 10.
37.67000, 5.
37.70000, 10.
37.73000, 10.
37.76000, 9.
37.79000, 15.
37.82000, 13.
37.85000, 4.
37.88000, 12.
37.91000, 16.
37.94000, 10.
37.97000, 12.
38.00000, 11.
38.03000, 11.
38.06000, 12.
38.09000, 11.
38.12000, 8.
38.15000, 13.
38.18000, 11.
38.21000, 10.
38.24000, 12.
38.27000, 5.
38.30000, 13.
38.33000, 12.
38.36000, 10.
38.39000, 9.
38.42000, 8.
38.45000, 12.
38.48000, 8.
38.51000, 8.
38.54000, 10.
38.57000, 6.
38.60000, 12.
38.63000, 8.
38.66000, 7.
38.69000, 11.
38.72000, 5.
38.75000, 13.
38.78000, 8.
38.81000, 8.
38.84000, 8.
38.87000, 10.
38.90000, 6.
38.93000, 9.
38.96000, 5.
38.99000, 4.
39.02000, 8.
39.05000, 5.
39.08000, 6.
39.11000, 5.
39.14000, 6.
39.17000, 6.
39.20000, 12.
39.23000, 12.
39.26000, 8.
39.29000, 12.
39.32000, 9.
39.35000, 7.
39.38000, 6.
39.41000, 8.
39.44000, 8.
39.47000, 6.
39.50000, 3.
39.53000, 8.
39.56000, 6.
39.59000, 8.
39.62000, 6.
39.65000, 3.
39.68000, 0.
39.71000, 7.
39.74000, 5.
39.77000, 3.
39.80000, 9.
39.83000, 2.
39.86000, 4.
39.89000, 5.
39.92000, 8.
39.95000, 8.
39.98000, 10.
40.01000, 2.
40.04000, 5.
40.07000, 5.
40.10000, 2.
40.13000, 6.
40.16000, 7.
40.19000, 1.
40.22000, 8.
40.25000, 5.
40.28000, 1.
40.31000, 6.
40.34000, 3.
40.37000, 5.
40.40000, 5.
40.43000, 2.
40.46000, 6.
40.49000, 8.
40.52000, 2.
40.55000, 0.
#ENDOFDATA   :