File: sample_data/data/Spectrum value from standard/LKSD1/Spectrum 10, LKSD 1.txt
#FORMAT      : EMSA/MAS Spectral Data File
#VERSION     : 1.0
#TITLE       : Spectrum 10
#DATE        : 21-AUG-2025
#TIME        : 15:14
#OWNER       : XGT7200
#NPOINTS     : 4096.
#NCOLUMNS    : 1.
#XUNITS      : keV
#YUNITS      : counts
#DATATYPE    : XY
#XPERCHAN    : 0.0100000
#OFFSET      : -0.400000
#SIGNALTYPE  : EDS
#CHOFFSET    : 40.0000
#LIVETIME    : 30
#REALTIME    : 39.3804
#BEAMKV      : 50.0000
#PROBECUR    : 706000.
#MAGCAM      : 100.000
#XTILTSTGE   : 0.0
#AZIMANGLE   : 0.0
#ELEVANGLE   : 45.0
#XPOSITION mm: 0.0000
#YPOSITION mm: 0.0000
#ZPOSITION mm: 0.0000
##OXINSTPT   : 4
##OXINSTSTROB: 72.00
#SPECTRUM    : Spectral Data Starts Here
-0.40000, 0.
-0.37000, 0.
-0.34000, 0.
-0.31000, 0.
-0.28000, 0.
-0.25000, 0.
-0.22000, 0.
-0.19000, 0.
-0.16000, 0.
-0.13000, 0.
-0.10000, 0.
-0.07000, 0.
-0.04000, 0.
-0.01000, 0.
0.02000, 0.
0.05000, 0.
0.08000, 0.
0.11000, 0.
0.14000, 0.
0.17000, 0.
0.20000, 0.
0.23000, 0.
0.26000, 0.
0.29000, 0.
0.32000, 0.
0.35000, 2.
0.38000, 15.
0.41000, 30.
0.44000, 49.
0.47000, 52.
0.50000, 60.
0.53000, 69.
0.56000, 83.
0.59000, 62.
0.62000, 43.
0.65000, 42.
0.68000, 38.
0.71000, 47.
0.74000, 52.
0.77000, 44.
0.80000, 52.
0.83000, 45.
0.86000, 37.
0.89000, 51.
0.92000, 53.
0.95000, 62.
0.98000, 56.
1.01000, 54.
1.04000, 70.
1.07000, 53.
1.10000, 46.
1.13000, 58.
1.16000, 48.
1.19000, 47.
1.22000, 69.
1.25000, 70.
1.28000, 72.
1.31000, 47.
1.34000, 41.
1.37000, 44.
1.40000, 69.
1.43000, 164.
1.46000, 314.
1.49000, 395.
1.52000, 355.
1.55000, 180.
1.58000, 98.
1.61000, 102.
1.64000, 245.
1.67000, 943.
1.70000, 2681.
1.73000, 4485.
1.76000, 4516.
1.79000, 2845.
1.82000, 1238.
1.85000, 452.
1.88000, 208.
1.91000, 134.
1.94000, 105.
1.97000, 124.
2.00000, 107.
2.03000, 71.
2.06000, 54.
2.09000, 50.
2.12000, 39.
2.15000, 41.
2.18000, 65.
2.21000, 168.
2.24000, 508.
2.27000, 991.
2.30000, 1471.
2.33000, 1415.
2.36000, 808.
2.39000, 390.
2.42000, 168.
2.45000, 149.
2.48000, 125.
2.51000, 115.
2.54000, 95.
2.57000, 113.
2.60000, 168.
2.63000, 281.
2.66000, 484.
2.69000, 623.
2.72000, 625.
2.75000, 388.
2.78000, 305.
2.81000, 348.
2.84000, 379.
2.87000, 338.
2.90000, 235.
2.93000, 179.
2.96000, 96.
2.99000, 85.
3.02000, 68.
3.05000, 58.
3.08000, 39.
3.11000, 49.
3.14000, 34.
3.17000, 32.
3.20000, 69.
3.23000, 149.
3.26000, 271.
3.29000, 443.
3.32000, 500.
3.35000, 419.
3.38000, 269.
3.41000, 131.
3.44000, 59.
3.47000, 56.
3.50000, 74.
3.53000, 139.
3.56000, 361.
3.59000, 919.
3.62000, 2096.
3.65000, 4253.
3.68000, 6057.
3.71000, 5904.
3.74000, 4343.
3.77000, 2145.
3.80000, 807.
3.83000, 251.
3.86000, 97.
3.89000, 120.
3.92000, 220.
3.95000, 448.
3.98000, 697.
4.01000, 931.
4.04000, 852.
4.07000, 639.
4.10000, 282.
4.13000, 129.
4.16000, 59.
4.19000, 30.
4.22000, 32.
4.25000, 32.
4.28000, 24.
4.31000, 40.
4.34000, 41.
4.37000, 29.
4.40000, 65.
4.43000, 127.
4.46000, 194.
4.49000, 260.
4.52000, 260.
4.55000, 223.
4.58000, 165.
4.61000, 106.
4.64000, 83.
4.67000, 61.
4.70000, 55.
4.73000, 46.
4.76000, 44.
4.79000, 50.
4.82000, 45.
4.85000, 57.
4.88000, 84.
4.91000, 92.
4.94000, 74.
4.97000, 83.
5.00000, 61.
5.03000, 48.
5.06000, 44.
5.09000, 44.
5.12000, 38.
5.15000, 48.
5.18000, 49.
5.21000, 58.
5.24000, 40.
5.27000, 66.
5.30000, 54.
5.33000, 64.
5.36000, 61.
5.39000, 73.
5.42000, 88.
5.45000, 67.
5.48000, 69.
5.51000, 46.
5.54000, 61.
5.57000, 56.
5.60000, 51.
5.63000, 55.
5.66000, 65.
5.69000, 65.
5.72000, 53.
5.75000, 72.
5.78000, 78.
5.81000, 135.
5.84000, 190.
5.87000, 215.
5.90000, 230.
5.93000, 196.
5.96000, 161.
5.99000, 102.
6.02000, 62.
6.05000, 82.
6.08000, 83.
6.11000, 90.
6.14000, 106.
6.17000, 80.
6.20000, 134.
6.23000, 324.
6.26000, 825.
6.29000, 2105.
6.32000, 4243.
6.35000, 7080.
6.38000, 9089.
6.41000, 9528.
6.44000, 7815.
6.47000, 5038.
6.50000, 2573.
6.53000, 1111.
6.56000, 454.
6.59000, 183.
6.62000, 106.
6.65000, 100.
6.68000, 85.
6.71000, 78.
6.74000, 90.
6.77000, 92.
6.80000, 105.
6.83000, 122.
6.86000, 134.
6.89000, 190.
6.92000, 327.
6.95000, 558.
6.98000, 885.
7.01000, 1283.
7.04000, 1641.
7.07000, 1591.
7.10000, 1249.
7.13000, 832.
7.16000, 492.
7.19000, 235.
7.22000, 135.
7.25000, 102.
7.28000, 75.
7.31000, 75.
7.34000, 85.
7.37000, 73.
7.40000, 77.
7.43000, 93.
7.46000, 79.
7.49000, 82.
7.52000, 80.
7.55000, 90.
7.58000, 82.
7.61000, 75.
7.64000, 79.
7.67000, 93.
7.70000, 92.
7.73000, 88.
7.76000, 88.
7.79000, 93.
7.82000, 80.
7.85000, 88.
7.88000, 117.
7.91000, 101.
7.94000, 105.
7.97000, 104.
8.00000, 124.
8.03000, 128.
8.06000, 139.
8.09000, 128.
8.12000, 130.
8.15000, 119.
8.18000, 117.
8.21000, 113.
8.24000, 114.
8.27000, 115.
8.30000, 110.
8.33000, 104.
8.36000, 110.
8.39000, 104.
8.42000, 104.
8.45000, 114.
8.48000, 131.
8.51000, 142.
8.54000, 204.
8.57000, 224.
8.60000, 264.
8.63000, 295.
8.66000, 279.
8.69000, 216.
8.72000, 180.
8.75000, 160.
8.78000, 130.
8.81000, 113.
8.84000, 114.
8.87000, 126.
8.90000, 122.
8.93000, 112.
8.96000, 117.
8.99000, 115.
9.02000, 109.
9.05000, 108.
9.08000, 124.
9.11000, 136.
9.14000, 130.
9.17000, 122.
9.20000, 123.
9.23000, 134.
9.26000, 132.
9.29000, 110.
9.32000, 126.
9.35000, 142.
9.38000, 138.
9.41000, 143.
9.44000, 116.
9.47000, 147.
9.50000, 154.
9.53000, 156.
9.56000, 147.
9.59000, 174.
9.62000, 146.
9.65000, 145.
9.68000, 163.
9.71000, 151.
9.74000, 116.
9.77000, 142.
9.80000, 146.
9.83000, 135.
9.86000, 149.
9.89000, 149.
9.92000, 137.
9.95000, 147.
9.98000, 128.
10.01000, 140.
10.04000, 145.
10.07000, 155.
10.10000, 154.
10.13000, 168.
10.16000, 161.
10.19000, 138.
10.22000, 143.
10.25000, 131.
10.28000, 124.
10.31000, 156.
10.34000, 148.
10.37000, 150.
10.40000, 125.
10.43000, 150.
10.46000, 173.
10.49000, 199.
10.52000, 199.
10.55000, 188.
10.58000, 226.
10.61000, 162.
10.64000, 175.
10.67000, 158.
10.70000, 168.
10.73000, 158.
10.76000, 171.
10.79000, 132.
10.82000, 137.
10.85000, 153.
10.88000, 147.
10.91000, 147.
10.94000, 140.
10.97000, 164.
11.00000, 150.
11.03000, 135.
11.06000, 147.
11.09000, 148.
11.12000, 152.
11.15000, 174.
11.18000, 161.
11.21000, 153.
11.24000, 148.
11.27000, 152.
11.30000, 185.
11.33000, 166.
11.36000, 161.
11.39000, 163.
11.42000, 151.
11.45000, 148.
11.48000, 171.
11.51000, 146.
11.54000, 157.
11.57000, 153.
11.60000, 160.
11.63000, 172.
11.66000, 147.
11.69000, 173.
11.72000, 192.
11.75000, 162.
11.78000, 160.
11.81000, 175.
11.84000, 158.
11.87000, 182.
11.90000, 176.
11.93000, 172.
11.96000, 158.
11.99000, 165.
12.02000, 152.
12.05000, 152.
12.08000, 179.
12.11000, 160.
12.14000, 154.
12.17000, 158.
12.20000, 154.
12.23000, 176.
12.26000, 175.
12.29000, 156.
12.32000, 156.
12.35000, 155.
12.38000, 172.
12.41000, 176.
12.44000, 155.
12.47000, 176.
12.50000, 174.
12.53000, 195.
12.56000, 188.
12.59000, 194.
12.62000, 171.
12.65000, 198.
12.68000, 214.
12.71000, 197.
12.74000, 179.
12.77000, 154.
12.80000, 175.
12.83000, 155.
12.86000, 203.
12.89000, 171.
12.92000, 187.
12.95000, 181.
12.98000, 158.
13.01000, 181.
13.04000, 169.
13.07000, 161.
13.10000, 191.
13.13000, 159.
13.16000, 192.
13.19000, 191.
13.22000, 174.
13.25000, 171.
13.28000, 195.
13.31000, 221.
13.34000, 182.
13.37000, 210.
13.40000, 205.
13.43000, 181.
13.46000, 177.
13.49000, 196.
13.52000, 177.
13.55000, 145.
13.58000, 173.
13.61000, 177.
13.64000, 181.
13.67000, 156.
13.70000, 160.
13.73000, 173.
13.76000, 163.
13.79000, 186.
13.82000, 163.
13.85000, 141.
13.88000, 176.
13.91000, 180.
13.94000, 239.
13.97000, 238.
14.00000, 290.
14.03000, 347.
14.06000, 426.
14.09000, 408.
14.12000, 485.
14.15000, 479.
14.18000, 415.
14.21000, 378.
14.24000, 299.
14.27000, 255.
14.30000, 223.
14.33000, 181.
14.36000, 165.
14.39000, 168.
14.42000, 158.
14.45000, 184.
14.48000, 201.
14.51000, 163.
14.54000, 175.
14.57000, 152.
14.60000, 174.
14.63000, 151.
14.66000, 194.
14.69000, 175.
14.72000, 176.
14.75000, 187.
14.78000, 173.
14.81000, 165.
14.84000, 185.
14.87000, 184.
14.90000, 195.
14.93000, 174.
14.96000, 200.
14.99000, 201.
15.02000, 159.
15.05000, 195.
15.08000, 157.
15.11000, 177.
15.14000, 163.
15.17000, 172.
15.20000, 182.
15.23000, 174.
15.26000, 152.
15.29000, 160.
15.32000, 166.
15.35000, 165.
15.38000, 181.
15.41000, 178.
15.44000, 158.
15.47000, 170.
15.50000, 173.
15.53000, 183.
15.56000, 189.
15.59000, 226.
15.62000, 220.
15.65000, 261.
15.68000, 291.
15.71000, 285.
15.74000, 328.
15.77000, 311.
15.80000, 297.
15.83000, 298.
15.86000, 264.
15.89000, 235.
15.92000, 236.
15.95000, 177.
15.98000, 187.
16.01000, 178.
16.04000, 197.
16.07000, 189.
16.10000, 181.
16.13000, 166.
16.16000, 170.
16.19000, 156.
16.22000, 167.
16.25000, 171.
16.28000, 169.
16.31000, 146.
16.34000, 174.
16.37000, 169.
16.40000, 158.
16.43000, 178.
16.46000, 168.
16.49000, 163.
16.52000, 168.
16.55000, 139.
16.58000, 163.
16.61000, 177.
16.64000, 150.
16.67000, 180.
16.70000, 171.
16.73000, 174.
16.76000, 162.
16.79000, 172.
16.82000, 153.
16.85000, 193.
16.88000, 165.
16.91000, 158.
16.94000, 168.
16.97000, 186.
17.00000, 180.
17.03000, 156.
17.06000, 193.
17.09000, 184.
17.12000, 180.
17.15000, 135.
17.18000, 149.
17.21000, 187.
17.24000, 172.
17.27000, 214.
17.30000, 185.
17.33000, 192.
17.36000, 183.
17.39000, 168.
17.42000, 169.
17.45000, 211.
17.48000, 209.
17.51000, 211.
17.54000, 177.
17.57000, 228.
17.60000, 207.
17.63000, 196.
17.66000, 195.
17.69000, 202.
17.72000, 198.
17.75000, 223.
17.78000, 248.
17.81000, 208.
17.84000, 213.
17.87000, 194.
17.90000, 244.
17.93000, 241.
17.96000, 263.
17.99000, 235.
18.02000, 255.
18.05000, 269.
18.08000, 248.
18.11000, 252.
18.14000, 264.
18.17000, 280.
18.20000, 330.
18.23000, 317.
18.26000, 337.
18.29000, 358.
18.32000, 408.
18.35000, 418.
18.38000, 446.
18.41000, 481.
18.44000, 505.
18.47000, 570.
18.50000, 634.
18.53000, 709.
18.56000, 796.
18.59000, 801.
18.62000, 892.
18.65000, 922.
18.68000, 958.
18.71000, 1024.
18.74000, 1012.
18.77000, 1074.
18.80000, 1026.
18.83000, 1119.
18.86000, 1008.
18.89000, 1035.
18.92000, 999.
18.95000, 938.
18.98000, 864.
19.01000, 844.
19.04000, 796.
19.07000, 752.
19.10000, 638.
19.13000, 610.
19.16000, 567.
19.19000, 470.
19.22000, 450.
19.25000, 409.
19.28000, 362.
19.31000, 363.
19.34000, 349.
19.37000, 347.
19.40000, 326.
19.43000, 279.
19.46000, 243.
19.49000, 267.
19.52000, 248.
19.55000, 245.
19.58000, 196.
19.61000, 224.
19.64000, 226.
19.67000, 199.
19.70000, 185.
19.73000, 192.
19.76000, 156.
19.79000, 203.
19.82000, 214.
19.85000, 212.
19.88000, 215.
19.91000, 259.
19.94000, 284.
19.97000, 359.
20.00000, 386.
20.03000, 466.
20.06000, 499.
20.09000, 563.
20.12000, 546.
20.15000, 652.
20.18000, 584.
20.21000, 526.
20.24000, 447.
20.27000, 420.
20.30000, 350.
20.33000, 259.
20.36000, 218.
20.39000, 201.
20.42000, 193.
20.45000, 164.
20.48000, 162.
20.51000, 173.
20.54000, 182.
20.57000, 188.
20.60000, 203.
20.63000, 198.
20.66000, 235.
20.69000, 201.
20.72000, 239.
20.75000, 217.
20.78000, 233.
20.81000, 245.
20.84000, 215.
20.87000, 222.
20.90000, 304.
20.93000, 262.
20.96000, 256.
20.99000, 256.
21.02000, 268.
21.05000, 276.
21.08000, 282.
21.11000, 269.
21.14000, 278.
21.17000, 274.
21.20000, 234.
21.23000, 242.
21.26000, 234.
21.29000, 222.
21.32000, 224.
21.35000, 207.
21.38000, 188.
21.41000, 166.
21.44000, 181.
21.47000, 176.
21.50000, 160.
21.53000, 163.
21.56000, 148.
21.59000, 151.
21.62000, 116.
21.65000, 145.
21.68000, 138.
21.71000, 128.
21.74000, 125.
21.77000, 137.
21.80000, 133.
21.83000, 114.
21.86000, 111.
21.89000, 104.
21.92000, 112.
21.95000, 129.
21.98000, 93.
22.01000, 98.
22.04000, 107.
22.07000, 99.
22.10000, 101.
22.13000, 88.
22.16000, 111.
22.19000, 101.
22.22000, 100.
22.25000, 91.
22.28000, 82.
22.31000, 94.
22.34000, 93.
22.37000, 96.
22.40000, 106.
22.43000, 91.
22.46000, 96.
22.49000, 107.
22.52000, 107.
22.55000, 128.
22.58000, 146.
22.61000, 134.
22.64000, 144.
22.67000, 147.
22.70000, 160.
22.73000, 146.
22.76000, 129.
22.79000, 123.
22.82000, 115.
22.85000, 125.
22.88000, 106.
22.91000, 95.
22.94000, 89.
22.97000, 94.
23.00000, 91.
23.03000, 81.
23.06000, 83.
23.09000, 84.
23.12000, 94.
23.15000, 105.
23.18000, 89.
23.21000, 103.
23.24000, 96.
23.27000, 93.
23.30000, 91.
23.33000, 59.
23.36000, 80.
23.39000, 73.
23.42000, 68.
23.45000, 79.
23.48000, 98.
23.51000, 63.
23.54000, 74.
23.57000, 76.
23.60000, 69.
23.63000, 74.
23.66000, 74.
23.69000, 74.
23.72000, 72.
23.75000, 67.
23.78000, 81.
23.81000, 73.
23.84000, 77.
23.87000, 67.
23.90000, 67.
23.93000, 74.
23.96000, 73.
23.99000, 76.
24.02000, 90.
24.05000, 70.
24.08000, 82.
24.11000, 100.
24.14000, 63.
24.17000, 81.
24.20000, 78.
24.23000, 75.
24.26000, 83.
24.29000, 62.
24.32000, 61.
24.35000, 79.
24.38000, 85.
24.41000, 61.
24.44000, 68.
24.47000, 63.
24.50000, 82.
24.53000, 62.
24.56000, 60.
24.59000, 72.
24.62000, 72.
24.65000, 70.
24.68000, 66.
24.71000, 60.
24.74000, 75.
24.77000, 62.
24.80000, 94.
24.83000, 55.
24.86000, 63.
24.89000, 75.
24.92000, 66.
24.95000, 77.
24.98000, 68.
25.01000, 69.
25.04000, 98.
25.07000, 68.
25.10000, 70.
25.13000, 91.
25.16000, 68.
25.19000, 69.
25.22000, 66.
25.25000, 66.
25.28000, 67.
25.31000, 82.
25.34000, 81.
25.37000, 76.
25.40000, 79.
25.43000, 61.
25.46000, 68.
25.49000, 78.
25.52000, 73.
25.55000, 67.
25.58000, 71.
25.61000, 52.
25.64000, 71.
25.67000, 72.
25.70000, 73.
25.73000, 65.
25.76000, 68.
25.79000, 62.
25.82000, 63.
25.85000, 60.
25.88000, 69.
25.91000, 56.
25.94000, 60.
25.97000, 64.
26.00000, 82.
26.03000, 47.
26.06000, 56.
26.09000, 62.
26.12000, 60.
26.15000, 54.
26.18000, 66.
26.21000, 62.
26.24000, 50.
26.27000, 54.
26.30000, 47.
26.33000, 64.
26.36000, 62.
26.39000, 63.
26.42000, 58.
26.45000, 47.
26.48000, 65.
26.51000, 72.
26.54000, 57.
26.57000, 58.
26.60000, 50.
26.63000, 46.
26.66000, 48.
26.69000, 72.
26.72000, 57.
26.75000, 57.
26.78000, 59.
26.81000, 47.
26.84000, 60.
26.87000, 69.
26.90000, 53.
26.93000, 64.
26.96000, 52.
26.99000, 40.
27.02000, 57.
27.05000, 54.
27.08000, 57.
27.11000, 47.
27.14000, 49.
27.17000, 51.
27.20000, 52.
27.23000, 62.
27.26000, 56.
27.29000, 46.
27.32000, 45.
27.35000, 55.
27.38000, 57.
27.41000, 58.
27.44000, 52.
27.47000, 60.
27.50000, 55.
27.53000, 54.
27.56000, 53.
27.59000, 55.
27.62000, 53.
27.65000, 55.
27.68000, 53.
27.71000, 56.
27.74000, 54.
27.77000, 44.
27.80000, 55.
27.83000, 69.
27.86000, 49.
27.89000, 43.
27.92000, 51.
27.95000, 66.
27.98000, 47.
28.01000, 61.
28.04000, 62.
28.07000, 63.
28.10000, 45.
28.13000, 49.
28.16000, 45.
28.19000, 39.
28.22000, 49.
28.25000, 35.
28.28000, 49.
28.31000, 42.
28.34000, 55.
28.37000, 44.
28.40000, 53.
28.43000, 46.
28.46000, 40.
28.49000, 54.
28.52000, 47.
28.55000, 65.
28.58000, 46.
28.61000, 59.
28.64000, 45.
28.67000, 46.
28.70000, 52.
28.73000, 37.
28.76000, 49.
28.79000, 43.
28.82000, 37.
28.85000, 55.
28.88000, 47.
28.91000, 32.
28.94000, 48.
28.97000, 38.
29.00000, 41.
29.03000, 39.
29.06000, 45.
29.09000, 48.
29.12000, 40.
29.15000, 42.
29.18000, 43.
29.21000, 42.
29.24000, 42.
29.27000, 58.
29.30000, 47.
29.33000, 42.
29.36000, 41.
29.39000, 38.
29.42000, 32.
29.45000, 45.
29.48000, 34.
29.51000, 36.
29.54000, 45.
29.57000, 42.
29.60000, 37.
29.63000, 47.
29.66000, 39.
29.69000, 41.
29.72000, 37.
29.75000, 41.
29.78000, 34.
29.81000, 35.
29.84000, 51.
29.87000, 37.
29.90000, 39.
29.93000, 27.
29.96000, 55.
29.99000, 35.
30.02000, 37.
30.05000, 37.
30.08000, 48.
30.11000, 45.
30.14000, 40.
30.17000, 45.
30.20000, 30.
30.23000, 37.
30.26000, 28.
30.29000, 40.
30.32000, 33.
30.35000, 34.
30.38000, 22.
30.41000, 41.
30.44000, 28.
30.47000, 36.
30.50000, 31.
30.53000, 37.
30.56000, 33.
30.59000, 33.
30.62000, 35.
30.65000, 40.
30.68000, 33.
30.71000, 37.
30.74000, 31.
30.77000, 33.
30.80000, 27.
30.83000, 32.
30.86000, 26.
30.89000, 32.
30.92000, 29.
30.95000, 26.
30.98000, 30.
31.01000, 24.
31.04000, 36.
31.07000, 36.
31.10000, 30.
31.13000, 25.
31.16000, 34.
31.19000, 31.
31.22000, 26.
31.25000, 21.
31.28000, 33.
31.31000, 43.
31.34000, 23.
31.37000, 30.
31.40000, 32.
31.43000, 31.
31.46000, 37.
31.49000, 23.
31.52000, 30.
31.55000, 34.
31.58000, 28.
31.61000, 27.
31.64000, 34.
31.67000, 37.
31.70000, 36.
31.73000, 35.
31.76000, 32.
31.79000, 31.
31.82000, 31.
31.85000, 33.
31.88000, 37.
31.91000, 27.
31.94000, 35.
31.97000, 31.
32.00000, 34.
32.03000, 36.
32.06000, 39.
32.09000, 43.
32.12000, 36.
32.15000, 22.
32.18000, 29.
32.21000, 32.
32.24000, 41.
32.27000, 22.
32.30000, 21.
32.33000, 32.
32.36000, 30.
32.39000, 33.
32.42000, 24.
32.45000, 21.
32.48000, 26.
32.51000, 22.
32.54000, 22.
32.57000, 30.
32.60000, 28.
32.63000, 30.
32.66000, 29.
32.69000, 22.
32.72000, 24.
32.75000, 22.
32.78000, 21.
32.81000, 27.
32.84000, 21.
32.87000, 27.
32.90000, 35.
32.93000, 20.
32.96000, 36.
32.99000, 24.
33.02000, 27.
33.05000, 22.
33.08000, 26.
33.11000, 22.
33.14000, 26.
33.17000, 29.
33.20000, 26.
33.23000, 19.
33.26000, 17.
33.29000, 22.
33.32000, 25.
33.35000, 25.
33.38000, 18.
33.41000, 14.
33.44000, 25.
33.47000, 26.
33.50000, 20.
33.53000, 29.
33.56000, 14.
33.59000, 28.
33.62000, 13.
33.65000, 31.
33.68000, 22.
33.71000, 23.
33.74000, 15.
33.77000, 21.
33.80000, 22.
33.83000, 20.
33.86000, 24.
33.89000, 26.
33.92000, 30.
33.95000, 29.
33.98000, 17.
34.01000, 17.
34.04000, 17.
34.07000, 20.
34.10000, 23.
34.13000, 19.
34.16000, 18.
34.19000, 17.
34.22000, 22.
34.25000, 18.
34.28000, 26.
34.31000, 17.
34.34000, 23.
34.37000, 25.
34.40000, 15.
34.43000, 23.
34.46000, 30.
34.49000, 31.
34.52000, 28.
34.55000, 26.
34.58000, 20.
34.61000, 23.
34.64000, 24.
34.67000, 8.
34.70000, 23.
34.73000, 16.
34.76000, 16.
34.79000, 21.
34.82000, 18.
34.85000, 25.
34.88000, 12.
34.91000, 29.
34.94000, 22.
34.97000, 16.
35.00000, 22.
35.03000, 17.
35.06000, 12.
35.09000, 14.
35.12000, 17.
35.15000, 19.
35.18000, 24.
35.21000, 19.
35.24000, 11.
35.27000, 15.
35.30000, 15.
35.33000, 20.
35.36000, 27.
35.39000, 20.
35.42000, 14.
35.45000, 12.
35.48000, 16.
35.51000, 17.
35.54000, 19.
35.57000, 19.
35.60000, 16.
35.63000, 17.
35.66000, 16.
35.69000, 15.
35.72000, 16.
35.75000, 16.
35.78000, 16.
35.81000, 20.
35.84000, 17.
35.87000, 14.
35.90000, 14.
35.93000, 10.
35.96000, 13.
35.99000, 13.
36.02000, 12.
36.05000, 15.
36.08000, 21.
36.11000, 24.
36.14000, 19.
36.17000, 11.
36.20000, 21.
36.23000, 16.
36.26000, 17.
36.29000, 13.
36.32000, 16.
36.35000, 19.
36.38000, 18.
36.41000, 9.
36.44000, 17.
36.47000, 14.
36.50000, 22.
36.53000, 16.
36.56000, 10.
36.59000, 14.
36.62000, 13.
36.65000, 11.
36.68000, 13.
36.71000, 11.
36.74000, 18.
36.77000, 11.
36.80000, 18.
36.83000, 11.
36.86000, 8.
36.89000, 7.
36.92000, 12.
36.95000, 13.
36.98000, 9.
37.01000, 15.
37.04000, 14.
37.07000, 10.
37.10000, 14.
37.13000, 10.
37.16000, 15.
37.19000, 12.
37.22000, 11.
37.25000, 16.
37.28000, 13.
37.31000, 11.
37.34000, 9.
37.37000, 5.
37.40000, 9.
37.43000, 11.
37.46000, 16.
37.49000, 12.
37.52000, 12.
37.55000, 18.
37.58000, 14.
37.61000, 15.
37.64000, 16.
37.67000, 12.
37.70000, 10.
37.73000, 12.
37.76000, 10.
37.79000, 12.
37.82000, 17.
37.85000, 8.
37.88000, 8.
37.91000, 13.
37.94000, 5.
37.97000, 8.
38.00000, 12.
38.03000, 10.
38.06000, 12.
38.09000, 9.
38.12000, 12.
38.15000, 12.
38.18000, 12.
38.21000, 12.
38.24000, 5.
38.27000, 12.
38.30000, 7.
38.33000, 7.
38.36000, 10.
38.39000, 5.
38.42000, 4.
38.45000, 11.
38.48000, 12.
38.51000, 4.
38.54000, 11.
38.57000, 7.
38.60000, 13.
38.63000, 7.
38.66000, 6.
38.69000, 7.
38.72000, 11.
38.75000, 9.
38.78000, 8.
38.81000, 16.
38.84000, 3.
38.87000, 9.
38.90000, 9.
38.93000, 10.
38.96000, 9.
38.99000, 12.
39.02000, 6.
39.05000, 6.
39.08000, 9.
39.11000, 9.
39.14000, 9.
39.17000, 11.
39.20000, 9.
39.23000, 8.
39.26000, 6.
39.29000, 6.
39.32000, 6.
39.35000, 8.
39.38000, 9.
39.41000, 7.
39.44000, 6.
39.47000, 10.
39.50000, 8.
39.53000, 6.
39.56000, 8.
39.59000, 9.
39.62000, 10.
39.65000, 7.
39.68000, 2.
39.71000, 7.
39.74000, 7.
39.77000, 5.
39.80000, 7.
39.83000, 6.
39.86000, 8.
39.89000, 2.
39.92000, 6.
39.95000, 8.
39.98000, 7.
40.01000, 6.
40.04000, 6.
40.07000, 5.
40.10000, 7.
40.13000, 4.
40.16000, 5.
40.19000, 8.
40.22000, 6.
40.25000, 1.
40.28000, 4.
40.31000, 5.
40.34000, 6.
40.37000, 4.
40.40000, 0.
40.43000, 3.
40.46000, 5.
40.49000, 4.
40.52000, 9.
40.55000, 0.
#ENDOFDATA   :