File: sample_data/data/Spectrum value from standard/LKSD1/Spectrum 7, LKSD 1.txt
#FORMAT      : EMSA/MAS Spectral Data File
#VERSION     : 1.0
#TITLE       : Spectrum 7
#DATE        : 21-AUG-2025
#TIME        : 15:11
#OWNER       : XGT7200
#NPOINTS     : 4096.
#NCOLUMNS    : 1.
#XUNITS      : keV
#YUNITS      : counts
#DATATYPE    : XY
#XPERCHAN    : 0.0100000
#OFFSET      : -0.400000
#SIGNALTYPE  : EDS
#CHOFFSET    : 40.0000
#LIVETIME    : 30
#REALTIME    : 39.9128
#BEAMKV      : 50.0000
#PROBECUR    : 734000.
#MAGCAM      : 100.000
#XTILTSTGE   : 0.0
#AZIMANGLE   : 0.0
#ELEVANGLE   : 45.0
#XPOSITION mm: 0.0000
#YPOSITION mm: 0.0000
#ZPOSITION mm: 0.0000
##OXINSTPT   : 4
##OXINSTSTROB: 71.95
#SPECTRUM    : Spectral Data Starts Here
-0.40000, 0.
-0.37000, 0.
-0.34000, 0.
-0.31000, 0.
-0.28000, 0.
-0.25000, 0.
-0.22000, 0.
-0.19000, 0.
-0.16000, 0.
-0.13000, 0.
-0.10000, 0.
-0.07000, 0.
-0.04000, 0.
-0.01000, 0.
0.02000, 0.
0.05000, 0.
0.08000, 0.
0.11000, 0.
0.14000, 0.
0.17000, 0.
0.20000, 0.
0.23000, 0.
0.26000, 0.
0.29000, 0.
0.32000, 0.
0.35000, 2.
0.38000, 11.
0.41000, 27.
0.44000, 38.
0.47000, 50.
0.50000, 47.
0.53000, 66.
0.56000, 75.
0.59000, 47.
0.62000, 59.
0.65000, 37.
0.68000, 39.
0.71000, 51.
0.74000, 37.
0.77000, 48.
0.80000, 39.
0.83000, 35.
0.86000, 41.
0.89000, 42.
0.92000, 50.
0.95000, 50.
0.98000, 56.
1.01000, 59.
1.04000, 71.
1.07000, 55.
1.10000, 55.
1.13000, 42.
1.16000, 39.
1.19000, 61.
1.22000, 55.
1.25000, 68.
1.28000, 64.
1.31000, 60.
1.34000, 52.
1.37000, 33.
1.40000, 76.
1.43000, 146.
1.46000, 331.
1.49000, 413.
1.52000, 318.
1.55000, 196.
1.58000, 93.
1.61000, 85.
1.64000, 271.
1.67000, 944.
1.70000, 2527.
1.73000, 4439.
1.76000, 4414.
1.79000, 2739.
1.82000, 1155.
1.85000, 417.
1.88000, 215.
1.91000, 138.
1.94000, 140.
1.97000, 129.
2.00000, 100.
2.03000, 84.
2.06000, 67.
2.09000, 56.
2.12000, 44.
2.15000, 43.
2.18000, 80.
2.21000, 194.
2.24000, 515.
2.27000, 1128.
2.30000, 1513.
2.33000, 1379.
2.36000, 864.
2.39000, 354.
2.42000, 169.
2.45000, 143.
2.48000, 155.
2.51000, 133.
2.54000, 76.
2.57000, 96.
2.60000, 167.
2.63000, 235.
2.66000, 405.
2.69000, 504.
2.72000, 532.
2.75000, 418.
2.78000, 377.
2.81000, 505.
2.84000, 508.
2.87000, 465.
2.90000, 318.
2.93000, 202.
2.96000, 144.
2.99000, 103.
3.02000, 72.
3.05000, 57.
3.08000, 46.
3.11000, 45.
3.14000, 42.
3.17000, 49.
3.20000, 88.
3.23000, 134.
3.26000, 235.
3.29000, 414.
3.32000, 459.
3.35000, 357.
3.38000, 258.
3.41000, 116.
3.44000, 75.
3.47000, 71.
3.50000, 91.
3.53000, 138.
3.56000, 325.
3.59000, 999.
3.62000, 2539.
3.65000, 5070.
3.68000, 6968.
3.71000, 6932.
3.74000, 4896.
3.77000, 2499.
3.80000, 899.
3.83000, 296.
3.86000, 96.
3.89000, 115.
3.92000, 273.
3.95000, 508.
3.98000, 812.
4.01000, 1060.
4.04000, 943.
4.07000, 697.
4.10000, 308.
4.13000, 128.
4.16000, 72.
4.19000, 24.
4.22000, 37.
4.25000, 20.
4.28000, 32.
4.31000, 19.
4.34000, 34.
4.37000, 41.
4.40000, 89.
4.43000, 165.
4.46000, 270.
4.49000, 366.
4.52000, 365.
4.55000, 330.
4.58000, 212.
4.61000, 138.
4.64000, 90.
4.67000, 85.
4.70000, 64.
4.73000, 54.
4.76000, 55.
4.79000, 58.
4.82000, 47.
4.85000, 80.
4.88000, 85.
4.91000, 107.
4.94000, 112.
4.97000, 98.
5.00000, 74.
5.03000, 55.
5.06000, 45.
5.09000, 49.
5.12000, 43.
5.15000, 49.
5.18000, 49.
5.21000, 53.
5.24000, 67.
5.27000, 62.
5.30000, 53.
5.33000, 57.
5.36000, 58.
5.39000, 75.
5.42000, 81.
5.45000, 70.
5.48000, 57.
5.51000, 64.
5.54000, 52.
5.57000, 61.
5.60000, 63.
5.63000, 56.
5.66000, 67.
5.69000, 47.
5.72000, 66.
5.75000, 71.
5.78000, 76.
5.81000, 126.
5.84000, 190.
5.87000, 236.
5.90000, 240.
5.93000, 218.
5.96000, 187.
5.99000, 114.
6.02000, 67.
6.05000, 55.
6.08000, 81.
6.11000, 79.
6.14000, 90.
6.17000, 116.
6.20000, 153.
6.23000, 351.
6.26000, 905.
6.29000, 2223.
6.32000, 4481.
6.35000, 7435.
6.38000, 9888.
6.41000, 10267.
6.44000, 8341.
6.47000, 5263.
6.50000, 2676.
6.53000, 1144.
6.56000, 430.
6.59000, 192.
6.62000, 107.
6.65000, 88.
6.68000, 72.
6.71000, 95.
6.74000, 112.
6.77000, 96.
6.80000, 107.
6.83000, 126.
6.86000, 136.
6.89000, 191.
6.92000, 340.
6.95000, 579.
6.98000, 944.
7.01000, 1406.
7.04000, 1666.
7.07000, 1678.
7.10000, 1346.
7.13000, 844.
7.16000, 501.
7.19000, 269.
7.22000, 136.
7.25000, 98.
7.28000, 78.
7.31000, 79.
7.34000, 73.
7.37000, 106.
7.40000, 82.
7.43000, 78.
7.46000, 83.
7.49000, 96.
7.52000, 94.
7.55000, 82.
7.58000, 74.
7.61000, 85.
7.64000, 72.
7.67000, 81.
7.70000, 86.
7.73000, 73.
7.76000, 98.
7.79000, 84.
7.82000, 98.
7.85000, 81.
7.88000, 103.
7.91000, 111.
7.94000, 110.
7.97000, 108.
8.00000, 129.
8.03000, 131.
8.06000, 139.
8.09000, 127.
8.12000, 123.
8.15000, 127.
8.18000, 129.
8.21000, 114.
8.24000, 121.
8.27000, 113.
8.30000, 114.
8.33000, 110.
8.36000, 108.
8.39000, 130.
8.42000, 110.
8.45000, 120.
8.48000, 152.
8.51000, 184.
8.54000, 205.
8.57000, 279.
8.60000, 301.
8.63000, 376.
8.66000, 336.
8.69000, 264.
8.72000, 207.
8.75000, 151.
8.78000, 122.
8.81000, 158.
8.84000, 119.
8.87000, 128.
8.90000, 135.
8.93000, 112.
8.96000, 128.
8.99000, 107.
9.02000, 115.
9.05000, 150.
9.08000, 127.
9.11000, 145.
9.14000, 139.
9.17000, 145.
9.20000, 138.
9.23000, 126.
9.26000, 139.
9.29000, 137.
9.32000, 145.
9.35000, 172.
9.38000, 124.
9.41000, 135.
9.44000, 150.
9.47000, 154.
9.50000, 144.
9.53000, 168.
9.56000, 183.
9.59000, 155.
9.62000, 154.
9.65000, 151.
9.68000, 170.
9.71000, 151.
9.74000, 167.
9.77000, 138.
9.80000, 138.
9.83000, 134.
9.86000, 128.
9.89000, 131.
9.92000, 140.
9.95000, 158.
9.98000, 154.
10.01000, 101.
10.04000, 157.
10.07000, 167.
10.10000, 151.
10.13000, 123.
10.16000, 163.
10.19000, 143.
10.22000, 129.
10.25000, 158.
10.28000, 148.
10.31000, 159.
10.34000, 148.
10.37000, 140.
10.40000, 157.
10.43000, 187.
10.46000, 195.
10.49000, 193.
10.52000, 200.
10.55000, 165.
10.58000, 193.
10.61000, 196.
10.64000, 149.
10.67000, 174.
10.70000, 140.
10.73000, 146.
10.76000, 152.
10.79000, 156.
10.82000, 160.
10.85000, 154.
10.88000, 145.
10.91000, 144.
10.94000, 165.
10.97000, 134.
11.00000, 145.
11.03000, 148.
11.06000, 151.
11.09000, 151.
11.12000, 166.
11.15000, 163.
11.18000, 146.
11.21000, 158.
11.24000, 164.
11.27000, 161.
11.30000, 181.
11.33000, 139.
11.36000, 163.
11.39000, 165.
11.42000, 155.
11.45000, 153.
11.48000, 163.
11.51000, 161.
11.54000, 167.
11.57000, 146.
11.60000, 152.
11.63000, 155.
11.66000, 173.
11.69000, 179.
11.72000, 147.
11.75000, 184.
11.78000, 156.
11.81000, 158.
11.84000, 186.
11.87000, 174.
11.90000, 179.
11.93000, 181.
11.96000, 186.
11.99000, 153.
12.02000, 160.
12.05000, 144.
12.08000, 168.
12.11000, 171.
12.14000, 163.
12.17000, 183.
12.20000, 163.
12.23000, 162.
12.26000, 182.
12.29000, 167.
12.32000, 162.
12.35000, 161.
12.38000, 156.
12.41000, 191.
12.44000, 169.
12.47000, 184.
12.50000, 178.
12.53000, 197.
12.56000, 192.
12.59000, 202.
12.62000, 199.
12.65000, 169.
12.68000, 194.
12.71000, 191.
12.74000, 209.
12.77000, 183.
12.80000, 181.
12.83000, 195.
12.86000, 166.
12.89000, 166.
12.92000, 165.
12.95000, 167.
12.98000, 197.
13.01000, 185.
13.04000, 196.
13.07000, 186.
13.10000, 158.
13.13000, 192.
13.16000, 173.
13.19000, 179.
13.22000, 174.
13.25000, 197.
13.28000, 183.
13.31000, 172.
13.34000, 197.
13.37000, 207.
13.40000, 215.
13.43000, 174.
13.46000, 180.
13.49000, 206.
13.52000, 185.
13.55000, 170.
13.58000, 171.
13.61000, 157.
13.64000, 162.
13.67000, 169.
13.70000, 195.
13.73000, 164.
13.76000, 184.
13.79000, 150.
13.82000, 174.
13.85000, 187.
13.88000, 182.
13.91000, 171.
13.94000, 207.
13.97000, 263.
14.00000, 299.
14.03000, 336.
14.06000, 403.
14.09000, 473.
14.12000, 471.
14.15000, 429.
14.18000, 433.
14.21000, 350.
14.24000, 286.
14.27000, 253.
14.30000, 214.
14.33000, 168.
14.36000, 176.
14.39000, 192.
14.42000, 167.
14.45000, 169.
14.48000, 172.
14.51000, 196.
14.54000, 162.
14.57000, 182.
14.60000, 176.
14.63000, 158.
14.66000, 182.
14.69000, 172.
14.72000, 174.
14.75000, 179.
14.78000, 171.
14.81000, 176.
14.84000, 177.
14.87000, 198.
14.90000, 177.
14.93000, 209.
14.96000, 231.
14.99000, 203.
15.02000, 199.
15.05000, 169.
15.08000, 168.
15.11000, 163.
15.14000, 168.
15.17000, 185.
15.20000, 163.
15.23000, 172.
15.26000, 168.
15.29000, 149.
15.32000, 166.
15.35000, 179.
15.38000, 157.
15.41000, 160.
15.44000, 175.
15.47000, 176.
15.50000, 191.
15.53000, 182.
15.56000, 260.
15.59000, 264.
15.62000, 336.
15.65000, 353.
15.68000, 425.
15.71000, 469.
15.74000, 435.
15.77000, 462.
15.80000, 415.
15.83000, 384.
15.86000, 311.
15.89000, 277.
15.92000, 219.
15.95000, 193.
15.98000, 192.
16.01000, 194.
16.04000, 164.
16.07000, 164.
16.10000, 167.
16.13000, 147.
16.16000, 176.
16.19000, 189.
16.22000, 170.
16.25000, 150.
16.28000, 174.
16.31000, 169.
16.34000, 172.
16.37000, 170.
16.40000, 175.
16.43000, 201.
16.46000, 172.
16.49000, 154.
16.52000, 174.
16.55000, 161.
16.58000, 154.
16.61000, 152.
16.64000, 176.
16.67000, 171.
16.70000, 183.
16.73000, 190.
16.76000, 153.
16.79000, 198.
16.82000, 147.
16.85000, 176.
16.88000, 178.
16.91000, 197.
16.94000, 169.
16.97000, 186.
17.00000, 181.
17.03000, 170.
17.06000, 170.
17.09000, 186.
17.12000, 165.
17.15000, 171.
17.18000, 171.
17.21000, 183.
17.24000, 207.
17.27000, 193.
17.30000, 195.
17.33000, 177.
17.36000, 203.
17.39000, 169.
17.42000, 178.
17.45000, 188.
17.48000, 207.
17.51000, 198.
17.54000, 225.
17.57000, 203.
17.60000, 248.
17.63000, 256.
17.66000, 229.
17.69000, 251.
17.72000, 279.
17.75000, 278.
17.78000, 231.
17.81000, 221.
17.84000, 225.
17.87000, 244.
17.90000, 217.
17.93000, 263.
17.96000, 235.
17.99000, 255.
18.02000, 231.
18.05000, 270.
18.08000, 252.
18.11000, 271.
18.14000, 276.
18.17000, 304.
18.20000, 301.
18.23000, 335.
18.26000, 335.
18.29000, 387.
18.32000, 412.
18.35000, 449.
18.38000, 457.
18.41000, 477.
18.44000, 539.
18.47000, 623.
18.50000, 673.
18.53000, 751.
18.56000, 822.
18.59000, 800.
18.62000, 862.
18.65000, 951.
18.68000, 987.
18.71000, 1064.
18.74000, 1033.
18.77000, 1071.
18.80000, 1080.
18.83000, 1062.
18.86000, 1090.
18.89000, 1002.
18.92000, 998.
18.95000, 935.
18.98000, 863.
19.01000, 770.
19.04000, 769.
19.07000, 701.
19.10000, 667.
19.13000, 609.
19.16000, 538.
19.19000, 494.
19.22000, 506.
19.25000, 434.
19.28000, 419.
19.31000, 365.
19.34000, 348.
19.37000, 321.
19.40000, 292.
19.43000, 296.
19.46000, 271.
19.49000, 267.
19.52000, 252.
19.55000, 265.
19.58000, 253.
19.61000, 221.
19.64000, 225.
19.67000, 221.
19.70000, 187.
19.73000, 179.
19.76000, 198.
19.79000, 201.
19.82000, 221.
19.85000, 200.
19.88000, 264.
19.91000, 256.
19.94000, 278.
19.97000, 397.
20.00000, 417.
20.03000, 461.
20.06000, 490.
20.09000, 550.
20.12000, 606.
20.15000, 623.
20.18000, 587.
20.21000, 527.
20.24000, 554.
20.27000, 463.
20.30000, 365.
20.33000, 261.
20.36000, 265.
20.39000, 194.
20.42000, 170.
20.45000, 177.
20.48000, 169.
20.51000, 164.
20.54000, 186.
20.57000, 176.
20.60000, 184.
20.63000, 184.
20.66000, 190.
20.69000, 218.
20.72000, 241.
20.75000, 221.
20.78000, 271.
20.81000, 274.
20.84000, 292.
20.87000, 256.
20.90000, 289.
20.93000, 283.
20.96000, 297.
20.99000, 297.
21.02000, 292.
21.05000, 318.
21.08000, 275.
21.11000, 269.
21.14000, 243.
21.17000, 260.
21.20000, 252.
21.23000, 237.
21.26000, 253.
21.29000, 209.
21.32000, 220.
21.35000, 228.
21.38000, 183.
21.41000, 206.
21.44000, 199.
21.47000, 169.
21.50000, 177.
21.53000, 172.
21.56000, 157.
21.59000, 143.
21.62000, 137.
21.65000, 141.
21.68000, 144.
21.71000, 122.
21.74000, 125.
21.77000, 141.
21.80000, 124.
21.83000, 124.
21.86000, 116.
21.89000, 105.
21.92000, 128.
21.95000, 98.
21.98000, 107.
22.01000, 124.
22.04000, 100.
22.07000, 110.
22.10000, 97.
22.13000, 113.
22.16000, 115.
22.19000, 103.
22.22000, 84.
22.25000, 108.
22.28000, 109.
22.31000, 85.
22.34000, 91.
22.37000, 105.
22.40000, 89.
22.43000, 109.
22.46000, 113.
22.49000, 129.
22.52000, 108.
22.55000, 128.
22.58000, 158.
22.61000, 145.
22.64000, 151.
22.67000, 153.
22.70000, 153.
22.73000, 151.
22.76000, 150.
22.79000, 111.
22.82000, 103.
22.85000, 97.
22.88000, 99.
22.91000, 94.
22.94000, 93.
22.97000, 100.
23.00000, 98.
23.03000, 96.
23.06000, 83.
23.09000, 100.
23.12000, 86.
23.15000, 100.
23.18000, 78.
23.21000, 75.
23.24000, 96.
23.27000, 77.
23.30000, 96.
23.33000, 79.
23.36000, 78.
23.39000, 79.
23.42000, 85.
23.45000, 66.
23.48000, 76.
23.51000, 69.
23.54000, 60.
23.57000, 91.
23.60000, 88.
23.63000, 75.
23.66000, 92.
23.69000, 75.
23.72000, 75.
23.75000, 59.
23.78000, 60.
23.81000, 72.
23.84000, 83.
23.87000, 82.
23.90000, 87.
23.93000, 79.
23.96000, 82.
23.99000, 66.
24.02000, 80.
24.05000, 77.
24.08000, 84.
24.11000, 59.
24.14000, 88.
24.17000, 67.
24.20000, 63.
24.23000, 72.
24.26000, 70.
24.29000, 73.
24.32000, 80.
24.35000, 72.
24.38000, 73.
24.41000, 63.
24.44000, 80.
24.47000, 96.
24.50000, 76.
24.53000, 65.
24.56000, 70.
24.59000, 72.
24.62000, 75.
24.65000, 82.
24.68000, 60.
24.71000, 71.
24.74000, 82.
24.77000, 70.
24.80000, 61.
24.83000, 77.
24.86000, 68.
24.89000, 78.
24.92000, 79.
24.95000, 79.
24.98000, 83.
25.01000, 71.
25.04000, 74.
25.07000, 77.
25.10000, 94.
25.13000, 83.
25.16000, 86.
25.19000, 76.
25.22000, 67.
25.25000, 72.
25.28000, 78.
25.31000, 93.
25.34000, 73.
25.37000, 74.
25.40000, 74.
25.43000, 63.
25.46000, 66.
25.49000, 74.
25.52000, 55.
25.55000, 64.
25.58000, 62.
25.61000, 69.
25.64000, 57.
25.67000, 69.
25.70000, 65.
25.73000, 62.
25.76000, 64.
25.79000, 80.
25.82000, 56.
25.85000, 71.
25.88000, 72.
25.91000, 58.
25.94000, 61.
25.97000, 56.
26.00000, 65.
26.03000, 66.
26.06000, 77.
26.09000, 62.
26.12000, 52.
26.15000, 72.
26.18000, 55.
26.21000, 58.
26.24000, 69.
26.27000, 49.
26.30000, 65.
26.33000, 61.
26.36000, 55.
26.39000, 66.
26.42000, 51.
26.45000, 54.
26.48000, 56.
26.51000, 71.
26.54000, 55.
26.57000, 67.
26.60000, 62.
26.63000, 64.
26.66000, 50.
26.69000, 56.
26.72000, 67.
26.75000, 45.
26.78000, 51.
26.81000, 52.
26.84000, 52.
26.87000, 51.
26.90000, 50.
26.93000, 53.
26.96000, 53.
26.99000, 58.
27.02000, 64.
27.05000, 64.
27.08000, 58.
27.11000, 62.
27.14000, 51.
27.17000, 47.
27.20000, 53.
27.23000, 52.
27.26000, 54.
27.29000, 59.
27.32000, 59.
27.35000, 53.
27.38000, 53.
27.41000, 55.
27.44000, 43.
27.47000, 36.
27.50000, 58.
27.53000, 61.
27.56000, 67.
27.59000, 60.
27.62000, 51.
27.65000, 53.
27.68000, 54.
27.71000, 45.
27.74000, 40.
27.77000, 57.
27.80000, 52.
27.83000, 54.
27.86000, 70.
27.89000, 64.
27.92000, 34.
27.95000, 45.
27.98000, 44.
28.01000, 55.
28.04000, 52.
28.07000, 47.
28.10000, 51.
28.13000, 45.
28.16000, 45.
28.19000, 60.
28.22000, 51.
28.25000, 29.
28.28000, 61.
28.31000, 44.
28.34000, 49.
28.37000, 49.
28.40000, 54.
28.43000, 48.
28.46000, 56.
28.49000, 40.
28.52000, 60.
28.55000, 42.
28.58000, 44.
28.61000, 49.
28.64000, 36.
28.67000, 57.
28.70000, 54.
28.73000, 44.
28.76000, 49.
28.79000, 56.
28.82000, 59.
28.85000, 30.
28.88000, 51.
28.91000, 52.
28.94000, 56.
28.97000, 58.
29.00000, 46.
29.03000, 43.
29.06000, 52.
29.09000, 41.
29.12000, 46.
29.15000, 37.
29.18000, 47.
29.21000, 42.
29.24000, 26.
29.27000, 35.
29.30000, 40.
29.33000, 43.
29.36000, 40.
29.39000, 50.
29.42000, 52.
29.45000, 52.
29.48000, 45.
29.51000, 43.
29.54000, 36.
29.57000, 43.
29.60000, 46.
29.63000, 37.
29.66000, 32.
29.69000, 40.
29.72000, 47.
29.75000, 44.
29.78000, 38.
29.81000, 36.
29.84000, 39.
29.87000, 42.
29.90000, 43.
29.93000, 29.
29.96000, 41.
29.99000, 44.
30.02000, 47.
30.05000, 41.
30.08000, 47.
30.11000, 43.
30.14000, 37.
30.17000, 39.
30.20000, 41.
30.23000, 39.
30.26000, 39.
30.29000, 39.
30.32000, 30.
30.35000, 36.
30.38000, 34.
30.41000, 41.
30.44000, 40.
30.47000, 42.
30.50000, 33.
30.53000, 39.
30.56000, 37.
30.59000, 31.
30.62000, 34.
30.65000, 37.
30.68000, 44.
30.71000, 33.
30.74000, 39.
30.77000, 49.
30.80000, 30.
30.83000, 40.
30.86000, 35.
30.89000, 37.
30.92000, 37.
30.95000, 34.
30.98000, 34.
31.01000, 39.
31.04000, 24.
31.07000, 36.
31.10000, 25.
31.13000, 28.
31.16000, 39.
31.19000, 29.
31.22000, 32.
31.25000, 31.
31.28000, 40.
31.31000, 20.
31.34000, 34.
31.37000, 29.
31.40000, 37.
31.43000, 35.
31.46000, 32.
31.49000, 39.
31.52000, 32.
31.55000, 33.
31.58000, 36.
31.61000, 38.
31.64000, 37.
31.67000, 32.
31.70000, 24.
31.73000, 30.
31.76000, 35.
31.79000, 35.
31.82000, 38.
31.85000, 34.
31.88000, 37.
31.91000, 33.
31.94000, 35.
31.97000, 28.
32.00000, 32.
32.03000, 34.
32.06000, 36.
32.09000, 37.
32.12000, 31.
32.15000, 38.
32.18000, 34.
32.21000, 34.
32.24000, 32.
32.27000, 33.
32.30000, 27.
32.33000, 23.
32.36000, 24.
32.39000, 30.
32.42000, 30.
32.45000, 34.
32.48000, 23.
32.51000, 28.
32.54000, 36.
32.57000, 19.
32.60000, 26.
32.63000, 22.
32.66000, 30.
32.69000, 39.
32.72000, 31.
32.75000, 28.
32.78000, 24.
32.81000, 29.
32.84000, 18.
32.87000, 24.
32.90000, 23.
32.93000, 26.
32.96000, 24.
32.99000, 29.
33.02000, 34.
33.05000, 19.
33.08000, 29.
33.11000, 20.
33.14000, 22.
33.17000, 23.
33.20000, 26.
33.23000, 27.
33.26000, 21.
33.29000, 23.
33.32000, 29.
33.35000, 30.
33.38000, 27.
33.41000, 28.
33.44000, 23.
33.47000, 29.
33.50000, 24.
33.53000, 24.
33.56000, 20.
33.59000, 18.
33.62000, 25.
33.65000, 28.
33.68000, 27.
33.71000, 30.
33.74000, 20.
33.77000, 13.
33.80000, 28.
33.83000, 25.
33.86000, 19.
33.89000, 27.
33.92000, 16.
33.95000, 29.
33.98000, 22.
34.01000, 20.
34.04000, 20.
34.07000, 19.
34.10000, 18.
34.13000, 25.
34.16000, 16.
34.19000, 26.
34.22000, 27.
34.25000, 25.
34.28000, 30.
34.31000, 15.
34.34000, 21.
34.37000, 31.
34.40000, 16.
34.43000, 29.
34.46000, 27.
34.49000, 17.
34.52000, 16.
34.55000, 23.
34.58000, 20.
34.61000, 17.
34.64000, 18.
34.67000, 17.
34.70000, 24.
34.73000, 15.
34.76000, 19.
34.79000, 11.
34.82000, 11.
34.85000, 22.
34.88000, 21.
34.91000, 21.
34.94000, 22.
34.97000, 12.
35.00000, 23.
35.03000, 20.
35.06000, 17.
35.09000, 10.
35.12000, 19.
35.15000, 22.
35.18000, 20.
35.21000, 21.
35.24000, 22.
35.27000, 17.
35.30000, 18.
35.33000, 20.
35.36000, 14.
35.39000, 21.
35.42000, 19.
35.45000, 30.
35.48000, 9.
35.51000, 19.
35.54000, 16.
35.57000, 18.
35.60000, 11.
35.63000, 15.
35.66000, 17.
35.69000, 19.
35.72000, 11.
35.75000, 15.
35.78000, 12.
35.81000, 14.
35.84000, 25.
35.87000, 17.
35.90000, 22.
35.93000, 23.
35.96000, 15.
35.99000, 18.
36.02000, 23.
36.05000, 20.
36.08000, 15.
36.11000, 16.
36.14000, 15.
36.17000, 20.
36.20000, 11.
36.23000, 20.
36.26000, 8.
36.29000, 13.
36.32000, 13.
36.35000, 15.
36.38000, 18.
36.41000, 19.
36.44000, 15.
36.47000, 16.
36.50000, 9.
36.53000, 14.
36.56000, 11.
36.59000, 18.
36.62000, 18.
36.65000, 16.
36.68000, 14.
36.71000, 13.
36.74000, 12.
36.77000, 14.
36.80000, 14.
36.83000, 10.
36.86000, 15.
36.89000, 16.
36.92000, 10.
36.95000, 6.
36.98000, 14.
37.01000, 12.
37.04000, 19.
37.07000, 17.
37.10000, 13.
37.13000, 9.
37.16000, 9.
37.19000, 16.
37.22000, 9.
37.25000, 12.
37.28000, 11.
37.31000, 10.
37.34000, 14.
37.37000, 19.
37.40000, 7.
37.43000, 17.
37.46000, 12.
37.49000, 12.
37.52000, 14.
37.55000, 16.
37.58000, 13.
37.61000, 14.
37.64000, 10.
37.67000, 11.
37.70000, 14.
37.73000, 12.
37.76000, 6.
37.79000, 7.
37.82000, 9.
37.85000, 18.
37.88000, 14.
37.91000, 6.
37.94000, 7.
37.97000, 12.
38.00000, 8.
38.03000, 5.
38.06000, 13.
38.09000, 5.
38.12000, 10.
38.15000, 10.
38.18000, 7.
38.21000, 10.
38.24000, 8.
38.27000, 14.
38.30000, 15.
38.33000, 18.
38.36000, 13.
38.39000, 13.
38.42000, 5.
38.45000, 10.
38.48000, 11.
38.51000, 15.
38.54000, 3.
38.57000, 15.
38.60000, 13.
38.63000, 6.
38.66000, 14.
38.69000, 7.
38.72000, 10.
38.75000, 8.
38.78000, 8.
38.81000, 6.
38.84000, 4.
38.87000, 13.
38.90000, 11.
38.93000, 4.
38.96000, 10.
38.99000, 10.
39.02000, 5.
39.05000, 7.
39.08000, 5.
39.11000, 10.
39.14000, 4.
39.17000, 9.
39.20000, 4.
39.23000, 11.
39.26000, 5.
39.29000, 5.
39.32000, 11.
39.35000, 7.
39.38000, 8.
39.41000, 8.
39.44000, 7.
39.47000, 8.
39.50000, 7.
39.53000, 11.
39.56000, 5.
39.59000, 6.
39.62000, 4.
39.65000, 7.
39.68000, 7.
39.71000, 4.
39.74000, 9.
39.77000, 3.
39.80000, 4.
39.83000, 5.
39.86000, 8.
39.89000, 4.
39.92000, 8.
39.95000, 4.
39.98000, 7.
40.01000, 5.
40.04000, 4.
40.07000, 4.
40.10000, 3.
40.13000, 3.
40.16000, 6.
40.19000, 4.
40.22000, 6.
40.25000, 10.
40.28000, 5.
40.31000, 7.
40.34000, 4.
40.37000, 4.
40.40000, 6.
40.43000, 0.
40.46000, 3.
40.49000, 6.
40.52000, 5.
40.55000, 0.
#ENDOFDATA   :