File: sample_data/data/Spectrum value from standard/PACS 2/Spectrum 14.txt
#FORMAT      : EMSA/MAS Spectral Data File
#VERSION     : 1.0
#TITLE       : Spectrum 14
#DATE        : 21-AUG-2025
#TIME        : 15:18
#OWNER       : XGT7200
#NPOINTS     : 4096.
#NCOLUMNS    : 1.
#XUNITS      : keV
#YUNITS      : counts
#DATATYPE    : XY
#XPERCHAN    : 0.0100000
#OFFSET      : -0.400000
#SIGNALTYPE  : EDS
#CHOFFSET    : 40.0000
#LIVETIME    : 30
#REALTIME    : 39.5713
#BEAMKV      : 50.0000
#PROBECUR    : 698000.
#MAGCAM      : 100.000
#XTILTSTGE   : 0.0
#AZIMANGLE   : 0.0
#ELEVANGLE   : 45.0
#XPOSITION mm: 0.0000
#YPOSITION mm: 0.0000
#ZPOSITION mm: 0.0000
##OXINSTPT   : 4
##OXINSTSTROB: 72.11
#SPECTRUM    : Spectral Data Starts Here
-0.40000, 0.
-0.37000, 0.
-0.34000, 0.
-0.31000, 0.
-0.28000, 0.
-0.25000, 0.
-0.22000, 0.
-0.19000, 0.
-0.16000, 0.
-0.13000, 0.
-0.10000, 0.
-0.07000, 0.
-0.04000, 0.
-0.01000, 0.
0.02000, 0.
0.05000, 0.
0.08000, 0.
0.11000, 0.
0.14000, 0.
0.17000, 0.
0.20000, 0.
0.23000, 0.
0.26000, 0.
0.29000, 0.
0.32000, 0.
0.35000, 2.
0.38000, 12.
0.41000, 29.
0.44000, 43.
0.47000, 44.
0.50000, 58.
0.53000, 58.
0.56000, 51.
0.59000, 52.
0.62000, 39.
0.65000, 36.
0.68000, 35.
0.71000, 42.
0.74000, 39.
0.77000, 54.
0.80000, 52.
0.83000, 47.
0.86000, 63.
0.89000, 73.
0.92000, 48.
0.95000, 47.
0.98000, 59.
1.01000, 48.
1.04000, 77.
1.07000, 65.
1.10000, 46.
1.13000, 34.
1.16000, 34.
1.19000, 55.
1.22000, 91.
1.25000, 66.
1.28000, 64.
1.31000, 72.
1.34000, 45.
1.37000, 35.
1.40000, 92.
1.43000, 222.
1.46000, 505.
1.49000, 647.
1.52000, 573.
1.55000, 288.
1.58000, 142.
1.61000, 104.
1.64000, 321.
1.67000, 1252.
1.70000, 3298.
1.73000, 5573.
1.76000, 5717.
1.79000, 3726.
1.82000, 1494.
1.85000, 520.
1.88000, 230.
1.91000, 91.
1.94000, 71.
1.97000, 71.
2.00000, 62.
2.03000, 64.
2.06000, 41.
2.09000, 45.
2.12000, 30.
2.15000, 31.
2.18000, 37.
2.21000, 98.
2.24000, 269.
2.27000, 519.
2.30000, 739.
2.33000, 749.
2.36000, 491.
2.39000, 212.
2.42000, 117.
2.45000, 101.
2.48000, 114.
2.51000, 136.
2.54000, 378.
2.57000, 885.
2.60000, 1463.
2.63000, 1777.
2.66000, 1545.
2.69000, 1039.
2.72000, 687.
2.75000, 467.
2.78000, 360.
2.81000, 385.
2.84000, 431.
2.87000, 366.
2.90000, 230.
2.93000, 142.
2.96000, 77.
2.99000, 63.
3.02000, 57.
3.05000, 47.
3.08000, 36.
3.11000, 44.
3.14000, 30.
3.17000, 48.
3.20000, 72.
3.23000, 131.
3.26000, 283.
3.29000, 465.
3.32000, 510.
3.35000, 466.
3.38000, 275.
3.41000, 117.
3.44000, 66.
3.47000, 53.
3.50000, 55.
3.53000, 75.
3.56000, 119.
3.59000, 254.
3.62000, 518.
3.65000, 985.
3.68000, 1250.
3.71000, 1263.
3.74000, 931.
3.77000, 484.
3.80000, 184.
3.83000, 61.
3.86000, 47.
3.89000, 48.
3.92000, 64.
3.95000, 90.
3.98000, 160.
4.01000, 213.
4.04000, 219.
4.07000, 149.
4.10000, 77.
4.13000, 50.
4.16000, 34.
4.19000, 29.
4.22000, 35.
4.25000, 24.
4.28000, 32.
4.31000, 45.
4.34000, 47.
4.37000, 69.
4.40000, 123.
4.43000, 243.
4.46000, 381.
4.49000, 564.
4.52000, 536.
4.55000, 454.
4.58000, 276.
4.61000, 173.
4.64000, 132.
4.67000, 102.
4.70000, 93.
4.73000, 71.
4.76000, 76.
4.79000, 69.
4.82000, 73.
4.85000, 103.
4.88000, 114.
4.91000, 142.
4.94000, 154.
4.97000, 125.
5.00000, 107.
5.03000, 73.
5.06000, 50.
5.09000, 54.
5.12000, 55.
5.15000, 53.
5.18000, 54.
5.21000, 63.
5.24000, 51.
5.27000, 58.
5.30000, 54.
5.33000, 71.
5.36000, 58.
5.39000, 96.
5.42000, 77.
5.45000, 90.
5.48000, 81.
5.51000, 90.
5.54000, 63.
5.57000, 68.
5.60000, 60.
5.63000, 56.
5.66000, 61.
5.69000, 43.
5.72000, 53.
5.75000, 67.
5.78000, 72.
5.81000, 91.
5.84000, 137.
5.87000, 159.
5.90000, 180.
5.93000, 165.
5.96000, 115.
5.99000, 104.
6.02000, 94.
6.05000, 84.
6.08000, 75.
6.11000, 70.
6.14000, 110.
6.17000, 138.
6.20000, 185.
6.23000, 467.
6.26000, 1158.
6.29000, 3015.
6.32000, 6225.
6.35000, 10412.
6.38000, 13499.
6.41000, 13984.
6.44000, 11426.
6.47000, 7484.
6.50000, 3817.
6.53000, 1645.
6.56000, 596.
6.59000, 202.
6.62000, 119.
6.65000, 84.
6.68000, 92.
6.71000, 104.
6.74000, 91.
6.77000, 100.
6.80000, 117.
6.83000, 122.
6.86000, 155.
6.89000, 244.
6.92000, 365.
6.95000, 719.
6.98000, 1289.
7.01000, 1840.
7.04000, 2316.
7.07000, 2228.
7.10000, 1787.
7.13000, 1150.
7.16000, 581.
7.19000, 310.
7.22000, 153.
7.25000, 105.
7.28000, 77.
7.31000, 79.
7.34000, 71.
7.37000, 60.
7.40000, 91.
7.43000, 91.
7.46000, 82.
7.49000, 70.
7.52000, 84.
7.55000, 72.
7.58000, 64.
7.61000, 46.
7.64000, 66.
7.67000, 76.
7.70000, 92.
7.73000, 73.
7.76000, 89.
7.79000, 78.
7.82000, 93.
7.85000, 90.
7.88000, 103.
7.91000, 129.
7.94000, 147.
7.97000, 175.
8.00000, 242.
8.03000, 262.
8.06000, 264.
8.09000, 236.
8.12000, 211.
8.15000, 175.
8.18000, 132.
8.21000, 108.
8.24000, 100.
8.27000, 100.
8.30000, 97.
8.33000, 94.
8.36000, 107.
8.39000, 95.
8.42000, 118.
8.45000, 111.
8.48000, 120.
8.51000, 145.
8.54000, 225.
8.57000, 285.
8.60000, 338.
8.63000, 348.
8.66000, 357.
8.69000, 277.
8.72000, 210.
8.75000, 154.
8.78000, 121.
8.81000, 119.
8.84000, 118.
8.87000, 128.
8.90000, 124.
8.93000, 130.
8.96000, 115.
8.99000, 135.
9.02000, 134.
9.05000, 117.
9.08000, 113.
9.11000, 124.
9.14000, 124.
9.17000, 135.
9.20000, 121.
9.23000, 128.
9.26000, 122.
9.29000, 113.
9.32000, 125.
9.35000, 132.
9.38000, 154.
9.41000, 105.
9.44000, 105.
9.47000, 145.
9.50000, 133.
9.53000, 154.
9.56000, 159.
9.59000, 165.
9.62000, 168.
9.65000, 155.
9.68000, 139.
9.71000, 124.
9.74000, 119.
9.77000, 116.
9.80000, 120.
9.83000, 134.
9.86000, 121.
9.89000, 110.
9.92000, 117.
9.95000, 142.
9.98000, 126.
10.01000, 113.
10.04000, 133.
10.07000, 109.
10.10000, 117.
10.13000, 123.
10.16000, 122.
10.19000, 121.
10.22000, 114.
10.25000, 136.
10.28000, 130.
10.31000, 110.
10.34000, 134.
10.37000, 135.
10.40000, 149.
10.43000, 150.
10.46000, 192.
10.49000, 193.
10.52000, 224.
10.55000, 230.
10.58000, 182.
10.61000, 155.
10.64000, 166.
10.67000, 137.
10.70000, 135.
10.73000, 128.
10.76000, 122.
10.79000, 141.
10.82000, 133.
10.85000, 122.
10.88000, 133.
10.91000, 149.
10.94000, 117.
10.97000, 148.
11.00000, 131.
11.03000, 138.
11.06000, 114.
11.09000, 130.
11.12000, 138.
11.15000, 151.
11.18000, 131.
11.21000, 135.
11.24000, 139.
11.27000, 133.
11.30000, 155.
11.33000, 121.
11.36000, 134.
11.39000, 148.
11.42000, 134.
11.45000, 149.
11.48000, 144.
11.51000, 130.
11.54000, 131.
11.57000, 124.
11.60000, 133.
11.63000, 143.
11.66000, 132.
11.69000, 138.
11.72000, 155.
11.75000, 166.
11.78000, 202.
11.81000, 256.
11.84000, 280.
11.87000, 320.
11.90000, 339.
11.93000, 310.
11.96000, 283.
11.99000, 244.
12.02000, 216.
12.05000, 189.
12.08000, 131.
12.11000, 167.
12.14000, 145.
12.17000, 147.
12.20000, 134.
12.23000, 156.
12.26000, 149.
12.29000, 152.
12.32000, 146.
12.35000, 171.
12.38000, 145.
12.41000, 164.
12.44000, 167.
12.47000, 156.
12.50000, 194.
12.53000, 204.
12.56000, 221.
12.59000, 210.
12.62000, 199.
12.65000, 187.
12.68000, 221.
12.71000, 190.
12.74000, 195.
12.77000, 197.
12.80000, 191.
12.83000, 210.
12.86000, 178.
12.89000, 163.
12.92000, 157.
12.95000, 139.
12.98000, 187.
13.01000, 174.
13.04000, 152.
13.07000, 153.
13.10000, 150.
13.13000, 166.
13.16000, 175.
13.19000, 174.
13.22000, 211.
13.25000, 197.
13.28000, 203.
13.31000, 190.
13.34000, 228.
13.37000, 208.
13.40000, 201.
13.43000, 156.
13.46000, 200.
13.49000, 172.
13.52000, 177.
13.55000, 166.
13.58000, 170.
13.61000, 146.
13.64000, 142.
13.67000, 141.
13.70000, 136.
13.73000, 177.
13.76000, 151.
13.79000, 163.
13.82000, 164.
13.85000, 151.
13.88000, 155.
13.91000, 178.
13.94000, 222.
13.97000, 200.
14.00000, 256.
14.03000, 320.
14.06000, 375.
14.09000, 362.
14.12000, 414.
14.15000, 421.
14.18000, 369.
14.21000, 303.
14.24000, 261.
14.27000, 237.
14.30000, 203.
14.33000, 176.
14.36000, 153.
14.39000, 155.
14.42000, 171.
14.45000, 165.
14.48000, 133.
14.51000, 151.
14.54000, 152.
14.57000, 140.
14.60000, 127.
14.63000, 139.
14.66000, 151.
14.69000, 164.
14.72000, 143.
14.75000, 146.
14.78000, 153.
14.81000, 148.
14.84000, 172.
14.87000, 163.
14.90000, 189.
14.93000, 142.
14.96000, 159.
14.99000, 163.
15.02000, 169.
15.05000, 161.
15.08000, 163.
15.11000, 154.
15.14000, 149.
15.17000, 158.
15.20000, 147.
15.23000, 156.
15.26000, 163.
15.29000, 146.
15.32000, 135.
15.35000, 165.
15.38000, 151.
15.41000, 147.
15.44000, 126.
15.47000, 176.
15.50000, 131.
15.53000, 171.
15.56000, 204.
15.59000, 211.
15.62000, 203.
15.65000, 255.
15.68000, 283.
15.71000, 300.
15.74000, 292.
15.77000, 265.
15.80000, 273.
15.83000, 266.
15.86000, 250.
15.89000, 179.
15.92000, 165.
15.95000, 179.
15.98000, 183.
16.01000, 173.
16.04000, 125.
16.07000, 143.
16.10000, 154.
16.13000, 160.
16.16000, 154.
16.19000, 134.
16.22000, 151.
16.25000, 168.
16.28000, 152.
16.31000, 159.
16.34000, 117.
16.37000, 143.
16.40000, 142.
16.43000, 167.
16.46000, 174.
16.49000, 155.
16.52000, 179.
16.55000, 145.
16.58000, 165.
16.61000, 152.
16.64000, 168.
16.67000, 122.
16.70000, 150.
16.73000, 143.
16.76000, 135.
16.79000, 152.
16.82000, 170.
16.85000, 156.
16.88000, 160.
16.91000, 141.
16.94000, 142.
16.97000, 121.
17.00000, 163.
17.03000, 146.
17.06000, 118.
17.09000, 151.
17.12000, 148.
17.15000, 166.
17.18000, 143.
17.21000, 155.
17.24000, 149.
17.27000, 147.
17.30000, 183.
17.33000, 163.
17.36000, 153.
17.39000, 175.
17.42000, 168.
17.45000, 159.
17.48000, 179.
17.51000, 165.
17.54000, 200.
17.57000, 176.
17.60000, 192.
17.63000, 184.
17.66000, 221.
17.69000, 193.
17.72000, 189.
17.75000, 205.
17.78000, 201.
17.81000, 192.
17.84000, 204.
17.87000, 200.
17.90000, 180.
17.93000, 211.
17.96000, 223.
17.99000, 195.
18.02000, 207.
18.05000, 222.
18.08000, 236.
18.11000, 233.
18.14000, 237.
18.17000, 243.
18.20000, 275.
18.23000, 290.
18.26000, 319.
18.29000, 331.
18.32000, 345.
18.35000, 394.
18.38000, 366.
18.41000, 420.
18.44000, 487.
18.47000, 522.
18.50000, 599.
18.53000, 585.
18.56000, 684.
18.59000, 721.
18.62000, 755.
18.65000, 791.
18.68000, 856.
18.71000, 901.
18.74000, 868.
18.77000, 919.
18.80000, 956.
18.83000, 890.
18.86000, 823.
18.89000, 870.
18.92000, 874.
18.95000, 799.
18.98000, 729.
19.01000, 683.
19.04000, 626.
19.07000, 622.
19.10000, 576.
19.13000, 491.
19.16000, 450.
19.19000, 423.
19.22000, 391.
19.25000, 361.
19.28000, 306.
19.31000, 306.
19.34000, 304.
19.37000, 259.
19.40000, 287.
19.43000, 246.
19.46000, 225.
19.49000, 208.
19.52000, 227.
19.55000, 208.
19.58000, 234.
19.61000, 224.
19.64000, 196.
19.67000, 172.
19.70000, 171.
19.73000, 164.
19.76000, 180.
19.79000, 177.
19.82000, 187.
19.85000, 204.
19.88000, 196.
19.91000, 256.
19.94000, 267.
19.97000, 296.
20.00000, 386.
20.03000, 426.
20.06000, 488.
20.09000, 516.
20.12000, 532.
20.15000, 523.
20.18000, 551.
20.21000, 501.
20.24000, 422.
20.27000, 367.
20.30000, 289.
20.33000, 262.
20.36000, 196.
20.39000, 192.
20.42000, 181.
20.45000, 183.
20.48000, 171.
20.51000, 172.
20.54000, 149.
20.57000, 173.
20.60000, 140.
20.63000, 196.
20.66000, 169.
20.69000, 189.
20.72000, 201.
20.75000, 202.
20.78000, 203.
20.81000, 236.
20.84000, 226.
20.87000, 236.
20.90000, 242.
20.93000, 224.
20.96000, 220.
20.99000, 237.
21.02000, 219.
21.05000, 237.
21.08000, 238.
21.11000, 241.
21.14000, 253.
21.17000, 211.
21.20000, 201.
21.23000, 209.
21.26000, 218.
21.29000, 203.
21.32000, 185.
21.35000, 215.
21.38000, 168.
21.41000, 175.
21.44000, 149.
21.47000, 137.
21.50000, 163.
21.53000, 141.
21.56000, 121.
21.59000, 115.
21.62000, 146.
21.65000, 122.
21.68000, 101.
21.71000, 122.
21.74000, 96.
21.77000, 95.
21.80000, 122.
21.83000, 118.
21.86000, 109.
21.89000, 95.
21.92000, 92.
21.95000, 101.
21.98000, 95.
22.01000, 91.
22.04000, 90.
22.07000, 97.
22.10000, 83.
22.13000, 87.
22.16000, 74.
22.19000, 81.
22.22000, 86.
22.25000, 100.
22.28000, 71.
22.31000, 85.
22.34000, 92.
22.37000, 80.
22.40000, 90.
22.43000, 81.
22.46000, 98.
22.49000, 86.
22.52000, 116.
22.55000, 103.
22.58000, 123.
22.61000, 121.
22.64000, 129.
22.67000, 147.
22.70000, 155.
22.73000, 117.
22.76000, 125.
22.79000, 122.
22.82000, 104.
22.85000, 98.
22.88000, 88.
22.91000, 92.
22.94000, 93.
22.97000, 82.
23.00000, 66.
23.03000, 81.
23.06000, 79.
23.09000, 56.
23.12000, 60.
23.15000, 85.
23.18000, 75.
23.21000, 78.
23.24000, 91.
23.27000, 60.
23.30000, 82.
23.33000, 72.
23.36000, 86.
23.39000, 51.
23.42000, 70.
23.45000, 80.
23.48000, 60.
23.51000, 77.
23.54000, 67.
23.57000, 56.
23.60000, 58.
23.63000, 67.
23.66000, 80.
23.69000, 81.
23.72000, 54.
23.75000, 62.
23.78000, 70.
23.81000, 57.
23.84000, 72.
23.87000, 66.
23.90000, 76.
23.93000, 58.
23.96000, 73.
23.99000, 62.
24.02000, 67.
24.05000, 74.
24.08000, 64.
24.11000, 56.
24.14000, 75.
24.17000, 53.
24.20000, 80.
24.23000, 57.
24.26000, 59.
24.29000, 66.
24.32000, 64.
24.35000, 51.
24.38000, 52.
24.41000, 71.
24.44000, 59.
24.47000, 72.
24.50000, 65.
24.53000, 63.
24.56000, 76.
24.59000, 55.
24.62000, 62.
24.65000, 59.
24.68000, 63.
24.71000, 67.
24.74000, 76.
24.77000, 53.
24.80000, 68.
24.83000, 65.
24.86000, 71.
24.89000, 68.
24.92000, 59.
24.95000, 70.
24.98000, 72.
25.01000, 68.
25.04000, 77.
25.07000, 74.
25.10000, 66.
25.13000, 66.
25.16000, 79.
25.19000, 65.
25.22000, 69.
25.25000, 82.
25.28000, 60.
25.31000, 73.
25.34000, 61.
25.37000, 55.
25.40000, 59.
25.43000, 51.
25.46000, 51.
25.49000, 60.
25.52000, 63.
25.55000, 63.
25.58000, 67.
25.61000, 50.
25.64000, 62.
25.67000, 66.
25.70000, 63.
25.73000, 52.
25.76000, 60.
25.79000, 53.
25.82000, 60.
25.85000, 49.
25.88000, 62.
25.91000, 69.
25.94000, 50.
25.97000, 60.
26.00000, 70.
26.03000, 46.
26.06000, 53.
26.09000, 50.
26.12000, 61.
26.15000, 58.
26.18000, 54.
26.21000, 51.
26.24000, 48.
26.27000, 54.
26.30000, 40.
26.33000, 51.
26.36000, 62.
26.39000, 57.
26.42000, 50.
26.45000, 51.
26.48000, 45.
26.51000, 55.
26.54000, 56.
26.57000, 49.
26.60000, 47.
26.63000, 55.
26.66000, 49.
26.69000, 42.
26.72000, 40.
26.75000, 50.
26.78000, 42.
26.81000, 39.
26.84000, 50.
26.87000, 45.
26.90000, 40.
26.93000, 57.
26.96000, 51.
26.99000, 52.
27.02000, 43.
27.05000, 47.
27.08000, 47.
27.11000, 52.
27.14000, 62.
27.17000, 38.
27.20000, 62.
27.23000, 63.
27.26000, 48.
27.29000, 50.
27.32000, 44.
27.35000, 43.
27.38000, 55.
27.41000, 56.
27.44000, 53.
27.47000, 60.
27.50000, 57.
27.53000, 48.
27.56000, 57.
27.59000, 39.
27.62000, 38.
27.65000, 41.
27.68000, 33.
27.71000, 49.
27.74000, 58.
27.77000, 36.
27.80000, 50.
27.83000, 57.
27.86000, 37.
27.89000, 56.
27.92000, 35.
27.95000, 39.
27.98000, 46.
28.01000, 47.
28.04000, 47.
28.07000, 48.
28.10000, 46.
28.13000, 35.
28.16000, 52.
28.19000, 46.
28.22000, 48.
28.25000, 50.
28.28000, 48.
28.31000, 45.
28.34000, 54.
28.37000, 41.
28.40000, 44.
28.43000, 55.
28.46000, 44.
28.49000, 42.
28.52000, 52.
28.55000, 40.
28.58000, 43.
28.61000, 42.
28.64000, 37.
28.67000, 52.
28.70000, 39.
28.73000, 35.
28.76000, 38.
28.79000, 38.
28.82000, 47.
28.85000, 34.
28.88000, 29.
28.91000, 35.
28.94000, 37.
28.97000, 40.
29.00000, 40.
29.03000, 46.
29.06000, 50.
29.09000, 45.
29.12000, 33.
29.15000, 42.
29.18000, 39.
29.21000, 36.
29.24000, 48.
29.27000, 41.
29.30000, 41.
29.33000, 42.
29.36000, 44.
29.39000, 30.
29.42000, 33.
29.45000, 31.
29.48000, 37.
29.51000, 42.
29.54000, 41.
29.57000, 28.
29.60000, 32.
29.63000, 37.
29.66000, 50.
29.69000, 38.
29.72000, 36.
29.75000, 32.
29.78000, 40.
29.81000, 32.
29.84000, 28.
29.87000, 46.
29.90000, 36.
29.93000, 43.
29.96000, 35.
29.99000, 32.
30.02000, 35.
30.05000, 32.
30.08000, 32.
30.11000, 35.
30.14000, 38.
30.17000, 37.
30.20000, 39.
30.23000, 52.
30.26000, 40.
30.29000, 30.
30.32000, 35.
30.35000, 47.
30.38000, 22.
30.41000, 34.
30.44000, 26.
30.47000, 30.
30.50000, 36.
30.53000, 37.
30.56000, 24.
30.59000, 38.
30.62000, 32.
30.65000, 42.
30.68000, 22.
30.71000, 32.
30.74000, 37.
30.77000, 34.
30.80000, 26.
30.83000, 37.
30.86000, 33.
30.89000, 36.
30.92000, 33.
30.95000, 33.
30.98000, 29.
31.01000, 33.
31.04000, 35.
31.07000, 44.
31.10000, 30.
31.13000, 26.
31.16000, 20.
31.19000, 36.
31.22000, 31.
31.25000, 30.
31.28000, 32.
31.31000, 22.
31.34000, 29.
31.37000, 34.
31.40000, 25.
31.43000, 25.
31.46000, 19.
31.49000, 34.
31.52000, 29.
31.55000, 41.
31.58000, 30.
31.61000, 23.
31.64000, 40.
31.67000, 38.
31.70000, 46.
31.73000, 42.
31.76000, 28.
31.79000, 40.
31.82000, 36.
31.85000, 26.
31.88000, 36.
31.91000, 34.
31.94000, 23.
31.97000, 44.
32.00000, 41.
32.03000, 23.
32.06000, 35.
32.09000, 40.
32.12000, 39.
32.15000, 37.
32.18000, 37.
32.21000, 26.
32.24000, 28.
32.27000, 35.
32.30000, 38.
32.33000, 30.
32.36000, 27.
32.39000, 15.
32.42000, 33.
32.45000, 31.
32.48000, 23.
32.51000, 24.
32.54000, 24.
32.57000, 25.
32.60000, 25.
32.63000, 29.
32.66000, 26.
32.69000, 29.
32.72000, 27.
32.75000, 27.
32.78000, 22.
32.81000, 27.
32.84000, 16.
32.87000, 28.
32.90000, 26.
32.93000, 30.
32.96000, 21.
32.99000, 17.
33.02000, 26.
33.05000, 18.
33.08000, 25.
33.11000, 23.
33.14000, 17.
33.17000, 28.
33.20000, 25.
33.23000, 21.
33.26000, 17.
33.29000, 26.
33.32000, 13.
33.35000, 25.
33.38000, 18.
33.41000, 19.
33.44000, 23.
33.47000, 19.
33.50000, 21.
33.53000, 20.
33.56000, 18.
33.59000, 23.
33.62000, 21.
33.65000, 24.
33.68000, 20.
33.71000, 15.
33.74000, 21.
33.77000, 20.
33.80000, 21.
33.83000, 19.
33.86000, 20.
33.89000, 22.
33.92000, 24.
33.95000, 16.
33.98000, 25.
34.01000, 26.
34.04000, 19.
34.07000, 27.
34.10000, 12.
34.13000, 25.
34.16000, 22.
34.19000, 20.
34.22000, 19.
34.25000, 15.
34.28000, 17.
34.31000, 21.
34.34000, 18.
34.37000, 22.
34.40000, 16.
34.43000, 15.
34.46000, 11.
34.49000, 14.
34.52000, 28.
34.55000, 16.
34.58000, 15.
34.61000, 16.
34.64000, 19.
34.67000, 13.
34.70000, 18.
34.73000, 11.
34.76000, 15.
34.79000, 19.
34.82000, 12.
34.85000, 12.
34.88000, 14.
34.91000, 23.
34.94000, 16.
34.97000, 26.
35.00000, 14.
35.03000, 21.
35.06000, 13.
35.09000, 12.
35.12000, 15.
35.15000, 20.
35.18000, 19.
35.21000, 20.
35.24000, 18.
35.27000, 15.
35.30000, 18.
35.33000, 19.
35.36000, 13.
35.39000, 25.
35.42000, 13.
35.45000, 13.
35.48000, 12.
35.51000, 13.
35.54000, 12.
35.57000, 17.
35.60000, 15.
35.63000, 14.
35.66000, 14.
35.69000, 21.
35.72000, 18.
35.75000, 7.
35.78000, 11.
35.81000, 14.
35.84000, 10.
35.87000, 12.
35.90000, 26.
35.93000, 10.
35.96000, 8.
35.99000, 9.
36.02000, 17.
36.05000, 9.
36.08000, 7.
36.11000, 17.
36.14000, 14.
36.17000, 16.
36.20000, 16.
36.23000, 13.
36.26000, 22.
36.29000, 13.
36.32000, 13.
36.35000, 16.
36.38000, 17.
36.41000, 9.
36.44000, 13.
36.47000, 9.
36.50000, 16.
36.53000, 17.
36.56000, 11.
36.59000, 17.
36.62000, 12.
36.65000, 12.
36.68000, 12.
36.71000, 14.
36.74000, 11.
36.77000, 14.
36.80000, 13.
36.83000, 8.
36.86000, 10.
36.89000, 15.
36.92000, 11.
36.95000, 15.
36.98000, 13.
37.01000, 5.
37.04000, 14.
37.07000, 12.
37.10000, 16.
37.13000, 11.
37.16000, 13.
37.19000, 19.
37.22000, 9.
37.25000, 6.
37.28000, 9.
37.31000, 14.
37.34000, 12.
37.37000, 12.
37.40000, 11.
37.43000, 13.
37.46000, 8.
37.49000, 13.
37.52000, 12.
37.55000, 11.
37.58000, 8.
37.61000, 15.
37.64000, 15.
37.67000, 9.
37.70000, 9.
37.73000, 12.
37.76000, 10.
37.79000, 8.
37.82000, 12.
37.85000, 12.
37.88000, 7.
37.91000, 9.
37.94000, 11.
37.97000, 7.
38.00000, 8.
38.03000, 9.
38.06000, 5.
38.09000, 10.
38.12000, 8.
38.15000, 6.
38.18000, 9.
38.21000, 11.
38.24000, 10.
38.27000, 8.
38.30000, 5.
38.33000, 10.
38.36000, 6.
38.39000, 5.
38.42000, 9.
38.45000, 7.
38.48000, 11.
38.51000, 7.
38.54000, 5.
38.57000, 5.
38.60000, 16.
38.63000, 12.
38.66000, 9.
38.69000, 10.
38.72000, 12.
38.75000, 3.
38.78000, 10.
38.81000, 11.
38.84000, 6.
38.87000, 8.
38.90000, 11.
38.93000, 7.
38.96000, 6.
38.99000, 9.
39.02000, 8.
39.05000, 6.
39.08000, 5.
39.11000, 4.
39.14000, 9.
39.17000, 10.
39.20000, 8.
39.23000, 7.
39.26000, 7.
39.29000, 8.
39.32000, 5.
39.35000, 10.
39.38000, 8.
39.41000, 5.
39.44000, 9.
39.47000, 6.
39.50000, 9.
39.53000, 4.
39.56000, 8.
39.59000, 6.
39.62000, 9.
39.65000, 2.
39.68000, 9.
39.71000, 4.
39.74000, 11.
39.77000, 5.
39.80000, 6.
39.83000, 6.
39.86000, 4.
39.89000, 3.
39.92000, 5.
39.95000, 6.
39.98000, 6.
40.01000, 8.
40.04000, 2.
40.07000, 1.
40.10000, 6.
40.13000, 4.
40.16000, 3.
40.19000, 4.
40.22000, 5.
40.25000, 8.
40.28000, 4.
40.31000, 8.
40.34000, 8.
40.37000, 4.
40.40000, 1.
40.43000, 3.
40.46000, 5.
40.49000, 4.
40.52000, 4.
40.55000, 0.
#ENDOFDATA   :