File: sample_data/data/Spectrum value from standard/PACS 2/Spectrum 13, PACS 2.txt
#FORMAT      : EMSA/MAS Spectral Data File
#VERSION     : 1.0
#TITLE       : Spectrum 13
#DATE        : 21-AUG-2025
#TIME        : 15:17
#OWNER       : XGT7200
#NPOINTS     : 4096.
#NCOLUMNS    : 1.
#XUNITS      : keV
#YUNITS      : counts
#DATATYPE    : XY
#XPERCHAN    : 0.0100000
#OFFSET      : -0.400000
#SIGNALTYPE  : EDS
#CHOFFSET    : 40.0000
#LIVETIME    : 30
#REALTIME    : 39.6942
#BEAMKV      : 50.0000
#PROBECUR    : 713000.
#MAGCAM      : 100.000
#XTILTSTGE   : 0.0
#AZIMANGLE   : 0.0
#ELEVANGLE   : 45.0
#XPOSITION mm: 0.0000
#YPOSITION mm: 0.0000
#ZPOSITION mm: 0.0000
##OXINSTPT   : 4
##OXINSTSTROB: 71.96
#SPECTRUM    : Spectral Data Starts Here
-0.40000, 0.
-0.37000, 0.
-0.34000, 0.
-0.31000, 0.
-0.28000, 0.
-0.25000, 0.
-0.22000, 0.
-0.19000, 0.
-0.16000, 0.
-0.13000, 0.
-0.10000, 0.
-0.07000, 0.
-0.04000, 0.
-0.01000, 0.
0.02000, 0.
0.05000, 0.
0.08000, 0.
0.11000, 0.
0.14000, 0.
0.17000, 0.
0.20000, 0.
0.23000, 0.
0.26000, 0.
0.29000, 0.
0.32000, 1.
0.35000, 2.
0.38000, 10.
0.41000, 34.
0.44000, 53.
0.47000, 56.
0.50000, 41.
0.53000, 39.
0.56000, 69.
0.59000, 57.
0.62000, 52.
0.65000, 40.
0.68000, 44.
0.71000, 39.
0.74000, 53.
0.77000, 51.
0.80000, 42.
0.83000, 57.
0.86000, 49.
0.89000, 55.
0.92000, 50.
0.95000, 57.
0.98000, 62.
1.01000, 70.
1.04000, 70.
1.07000, 61.
1.10000, 50.
1.13000, 43.
1.16000, 44.
1.19000, 53.
1.22000, 57.
1.25000, 99.
1.28000, 77.
1.31000, 55.
1.34000, 44.
1.37000, 37.
1.40000, 85.
1.43000, 252.
1.46000, 549.
1.49000, 660.
1.52000, 542.
1.55000, 309.
1.58000, 146.
1.61000, 117.
1.64000, 302.
1.67000, 1227.
1.70000, 3505.
1.73000, 5813.
1.76000, 5980.
1.79000, 3687.
1.82000, 1555.
1.85000, 551.
1.88000, 227.
1.91000, 100.
1.94000, 84.
1.97000, 81.
2.00000, 71.
2.03000, 61.
2.06000, 43.
2.09000, 33.
2.12000, 37.
2.15000, 36.
2.18000, 34.
2.21000, 96.
2.24000, 296.
2.27000, 621.
2.30000, 845.
2.33000, 800.
2.36000, 527.
2.39000, 253.
2.42000, 128.
2.45000, 98.
2.48000, 112.
2.51000, 164.
2.54000, 407.
2.57000, 873.
2.60000, 1498.
2.63000, 1859.
2.66000, 1638.
2.69000, 1131.
2.72000, 728.
2.75000, 475.
2.78000, 372.
2.81000, 362.
2.84000, 392.
2.87000, 316.
2.90000, 211.
2.93000, 123.
2.96000, 95.
2.99000, 72.
3.02000, 68.
3.05000, 46.
3.08000, 33.
3.11000, 32.
3.14000, 37.
3.17000, 32.
3.20000, 66.
3.23000, 164.
3.26000, 261.
3.29000, 417.
3.32000, 548.
3.35000, 410.
3.38000, 269.
3.41000, 119.
3.44000, 45.
3.47000, 49.
3.50000, 52.
3.53000, 94.
3.56000, 135.
3.59000, 234.
3.62000, 493.
3.65000, 851.
3.68000, 1171.
3.71000, 1184.
3.74000, 799.
3.77000, 403.
3.80000, 157.
3.83000, 65.
3.86000, 34.
3.89000, 48.
3.92000, 73.
3.95000, 113.
3.98000, 169.
4.01000, 218.
4.04000, 176.
4.07000, 138.
4.10000, 89.
4.13000, 45.
4.16000, 29.
4.19000, 36.
4.22000, 36.
4.25000, 46.
4.28000, 39.
4.31000, 39.
4.34000, 38.
4.37000, 63.
4.40000, 97.
4.43000, 248.
4.46000, 380.
4.49000, 550.
4.52000, 549.
4.55000, 446.
4.58000, 302.
4.61000, 140.
4.64000, 117.
4.67000, 101.
4.70000, 75.
4.73000, 68.
4.76000, 69.
4.79000, 73.
4.82000, 80.
4.85000, 107.
4.88000, 128.
4.91000, 161.
4.94000, 153.
4.97000, 121.
5.00000, 108.
5.03000, 72.
5.06000, 50.
5.09000, 52.
5.12000, 50.
5.15000, 62.
5.18000, 57.
5.21000, 63.
5.24000, 50.
5.27000, 65.
5.30000, 71.
5.33000, 82.
5.36000, 81.
5.39000, 82.
5.42000, 72.
5.45000, 90.
5.48000, 79.
5.51000, 51.
5.54000, 63.
5.57000, 64.
5.60000, 55.
5.63000, 58.
5.66000, 56.
5.69000, 49.
5.72000, 55.
5.75000, 60.
5.78000, 72.
5.81000, 100.
5.84000, 135.
5.87000, 164.
5.90000, 164.
5.93000, 147.
5.96000, 113.
5.99000, 98.
6.02000, 96.
6.05000, 70.
6.08000, 79.
6.11000, 78.
6.14000, 99.
6.17000, 136.
6.20000, 181.
6.23000, 436.
6.26000, 1220.
6.29000, 2909.
6.32000, 6048.
6.35000, 10073.
6.38000, 13183.
6.41000, 13641.
6.44000, 11187.
6.47000, 7095.
6.50000, 3791.
6.53000, 1488.
6.56000, 515.
6.59000, 244.
6.62000, 134.
6.65000, 92.
6.68000, 116.
6.71000, 106.
6.74000, 109.
6.77000, 95.
6.80000, 135.
6.83000, 136.
6.86000, 168.
6.89000, 232.
6.92000, 370.
6.95000, 714.
6.98000, 1198.
7.01000, 1843.
7.04000, 2165.
7.07000, 2179.
7.10000, 1703.
7.13000, 1135.
7.16000, 611.
7.19000, 310.
7.22000, 166.
7.25000, 100.
7.28000, 80.
7.31000, 72.
7.34000, 79.
7.37000, 87.
7.40000, 88.
7.43000, 86.
7.46000, 95.
7.49000, 93.
7.52000, 78.
7.55000, 96.
7.58000, 76.
7.61000, 67.
7.64000, 60.
7.67000, 79.
7.70000, 85.
7.73000, 96.
7.76000, 91.
7.79000, 89.
7.82000, 84.
7.85000, 111.
7.88000, 99.
7.91000, 106.
7.94000, 148.
7.97000, 172.
8.00000, 226.
8.03000, 265.
8.06000, 248.
8.09000, 252.
8.12000, 204.
8.15000, 168.
8.18000, 135.
8.21000, 128.
8.24000, 118.
8.27000, 102.
8.30000, 102.
8.33000, 104.
8.36000, 114.
8.39000, 109.
8.42000, 114.
8.45000, 117.
8.48000, 128.
8.51000, 155.
8.54000, 199.
8.57000, 250.
8.60000, 324.
8.63000, 293.
8.66000, 316.
8.69000, 251.
8.72000, 225.
8.75000, 145.
8.78000, 154.
8.81000, 131.
8.84000, 127.
8.87000, 129.
8.90000, 147.
8.93000, 140.
8.96000, 119.
8.99000, 142.
9.02000, 135.
9.05000, 120.
9.08000, 137.
9.11000, 135.
9.14000, 130.
9.17000, 142.
9.20000, 127.
9.23000, 140.
9.26000, 141.
9.29000, 136.
9.32000, 115.
9.35000, 111.
9.38000, 121.
9.41000, 132.
9.44000, 122.
9.47000, 129.
9.50000, 164.
9.53000, 146.
9.56000, 170.
9.59000, 171.
9.62000, 174.
9.65000, 146.
9.68000, 145.
9.71000, 133.
9.74000, 131.
9.77000, 133.
9.80000, 114.
9.83000, 119.
9.86000, 134.
9.89000, 114.
9.92000, 112.
9.95000, 127.
9.98000, 133.
10.01000, 136.
10.04000, 134.
10.07000, 147.
10.10000, 136.
10.13000, 139.
10.16000, 127.
10.19000, 128.
10.22000, 123.
10.25000, 134.
10.28000, 128.
10.31000, 152.
10.34000, 149.
10.37000, 146.
10.40000, 158.
10.43000, 174.
10.46000, 169.
10.49000, 196.
10.52000, 210.
10.55000, 213.
10.58000, 189.
10.61000, 190.
10.64000, 155.
10.67000, 136.
10.70000, 145.
10.73000, 149.
10.76000, 136.
10.79000, 137.
10.82000, 135.
10.85000, 143.
10.88000, 137.
10.91000, 135.
10.94000, 145.
10.97000, 149.
11.00000, 159.
11.03000, 131.
11.06000, 135.
11.09000, 139.
11.12000, 137.
11.15000, 129.
11.18000, 141.
11.21000, 131.
11.24000, 160.
11.27000, 132.
11.30000, 139.
11.33000, 134.
11.36000, 142.
11.39000, 153.
11.42000, 146.
11.45000, 142.
11.48000, 151.
11.51000, 147.
11.54000, 138.
11.57000, 158.
11.60000, 127.
11.63000, 143.
11.66000, 170.
11.69000, 175.
11.72000, 192.
11.75000, 199.
11.78000, 204.
11.81000, 246.
11.84000, 274.
11.87000, 307.
11.90000, 332.
11.93000, 314.
11.96000, 301.
11.99000, 249.
12.02000, 191.
12.05000, 202.
12.08000, 164.
12.11000, 131.
12.14000, 176.
12.17000, 154.
12.20000, 135.
12.23000, 160.
12.26000, 161.
12.29000, 144.
12.32000, 153.
12.35000, 169.
12.38000, 169.
12.41000, 163.
12.44000, 143.
12.47000, 157.
12.50000, 188.
12.53000, 187.
12.56000, 227.
12.59000, 239.
12.62000, 202.
12.65000, 230.
12.68000, 213.
12.71000, 179.
12.74000, 218.
12.77000, 200.
12.80000, 189.
12.83000, 167.
12.86000, 211.
12.89000, 162.
12.92000, 189.
12.95000, 168.
12.98000, 181.
13.01000, 140.
13.04000, 183.
13.07000, 147.
13.10000, 160.
13.13000, 155.
13.16000, 174.
13.19000, 180.
13.22000, 196.
13.25000, 196.
13.28000, 241.
13.31000, 253.
13.34000, 237.
13.37000, 220.
13.40000, 216.
13.43000, 221.
13.46000, 191.
13.49000, 193.
13.52000, 152.
13.55000, 181.
13.58000, 155.
13.61000, 173.
13.64000, 150.
13.67000, 138.
13.70000, 153.
13.73000, 138.
13.76000, 180.
13.79000, 150.
13.82000, 161.
13.85000, 163.
13.88000, 168.
13.91000, 203.
13.94000, 177.
13.97000, 203.
14.00000, 279.
14.03000, 327.
14.06000, 362.
14.09000, 369.
14.12000, 448.
14.15000, 425.
14.18000, 384.
14.21000, 311.
14.24000, 291.
14.27000, 228.
14.30000, 188.
14.33000, 160.
14.36000, 143.
14.39000, 146.
14.42000, 151.
14.45000, 161.
14.48000, 140.
14.51000, 151.
14.54000, 147.
14.57000, 150.
14.60000, 127.
14.63000, 158.
14.66000, 149.
14.69000, 165.
14.72000, 170.
14.75000, 163.
14.78000, 154.
14.81000, 165.
14.84000, 207.
14.87000, 184.
14.90000, 168.
14.93000, 168.
14.96000, 179.
14.99000, 174.
15.02000, 182.
15.05000, 161.
15.08000, 153.
15.11000, 166.
15.14000, 170.
15.17000, 177.
15.20000, 168.
15.23000, 167.
15.26000, 154.
15.29000, 147.
15.32000, 148.
15.35000, 151.
15.38000, 174.
15.41000, 138.
15.44000, 116.
15.47000, 166.
15.50000, 179.
15.53000, 175.
15.56000, 226.
15.59000, 212.
15.62000, 239.
15.65000, 322.
15.68000, 309.
15.71000, 385.
15.74000, 368.
15.77000, 408.
15.80000, 370.
15.83000, 317.
15.86000, 255.
15.89000, 245.
15.92000, 220.
15.95000, 181.
15.98000, 160.
16.01000, 156.
16.04000, 167.
16.07000, 161.
16.10000, 161.
16.13000, 160.
16.16000, 156.
16.19000, 146.
16.22000, 140.
16.25000, 140.
16.28000, 136.
16.31000, 141.
16.34000, 147.
16.37000, 174.
16.40000, 152.
16.43000, 160.
16.46000, 155.
16.49000, 148.
16.52000, 138.
16.55000, 151.
16.58000, 179.
16.61000, 140.
16.64000, 146.
16.67000, 155.
16.70000, 166.
16.73000, 159.
16.76000, 163.
16.79000, 165.
16.82000, 157.
16.85000, 149.
16.88000, 138.
16.91000, 156.
16.94000, 154.
16.97000, 164.
17.00000, 145.
17.03000, 152.
17.06000, 160.
17.09000, 137.
17.12000, 150.
17.15000, 161.
17.18000, 171.
17.21000, 150.
17.24000, 172.
17.27000, 177.
17.30000, 169.
17.33000, 161.
17.36000, 159.
17.39000, 184.
17.42000, 160.
17.45000, 178.
17.48000, 184.
17.51000, 208.
17.54000, 203.
17.57000, 197.
17.60000, 194.
17.63000, 202.
17.66000, 211.
17.69000, 219.
17.72000, 197.
17.75000, 195.
17.78000, 210.
17.81000, 213.
17.84000, 202.
17.87000, 229.
17.90000, 223.
17.93000, 212.
17.96000, 194.
17.99000, 250.
18.02000, 232.
18.05000, 241.
18.08000, 257.
18.11000, 251.
18.14000, 245.
18.17000, 269.
18.20000, 292.
18.23000, 343.
18.26000, 309.
18.29000, 340.
18.32000, 329.
18.35000, 412.
18.38000, 433.
18.41000, 441.
18.44000, 490.
18.47000, 570.
18.50000, 628.
18.53000, 633.
18.56000, 694.
18.59000, 757.
18.62000, 761.
18.65000, 816.
18.68000, 897.
18.71000, 922.
18.74000, 910.
18.77000, 922.
18.80000, 867.
18.83000, 918.
18.86000, 907.
18.89000, 840.
18.92000, 863.
18.95000, 792.
18.98000, 775.
19.01000, 707.
19.04000, 686.
19.07000, 610.
19.10000, 532.
19.13000, 516.
19.16000, 471.
19.19000, 417.
19.22000, 431.
19.25000, 369.
19.28000, 340.
19.31000, 290.
19.34000, 306.
19.37000, 280.
19.40000, 255.
19.43000, 235.
19.46000, 237.
19.49000, 241.
19.52000, 232.
19.55000, 204.
19.58000, 187.
19.61000, 204.
19.64000, 192.
19.67000, 192.
19.70000, 192.
19.73000, 139.
19.76000, 174.
19.79000, 163.
19.82000, 162.
19.85000, 168.
19.88000, 216.
19.91000, 259.
19.94000, 275.
19.97000, 325.
20.00000, 396.
20.03000, 421.
20.06000, 497.
20.09000, 522.
20.12000, 517.
20.15000, 567.
20.18000, 572.
20.21000, 525.
20.24000, 459.
20.27000, 376.
20.30000, 330.
20.33000, 239.
20.36000, 202.
20.39000, 212.
20.42000, 167.
20.45000, 171.
20.48000, 152.
20.51000, 148.
20.54000, 164.
20.57000, 173.
20.60000, 183.
20.63000, 197.
20.66000, 170.
20.69000, 213.
20.72000, 207.
20.75000, 205.
20.78000, 230.
20.81000, 215.
20.84000, 252.
20.87000, 220.
20.90000, 242.
20.93000, 266.
20.96000, 269.
20.99000, 235.
21.02000, 264.
21.05000, 255.
21.08000, 232.
21.11000, 248.
21.14000, 268.
21.17000, 233.
21.20000, 234.
21.23000, 205.
21.26000, 197.
21.29000, 186.
21.32000, 186.
21.35000, 181.
21.38000, 160.
21.41000, 186.
21.44000, 176.
21.47000, 161.
21.50000, 117.
21.53000, 140.
21.56000, 139.
21.59000, 143.
21.62000, 122.
21.65000, 126.
21.68000, 135.
21.71000, 113.
21.74000, 117.
21.77000, 94.
21.80000, 91.
21.83000, 87.
21.86000, 98.
21.89000, 91.
21.92000, 102.
21.95000, 113.
21.98000, 106.
22.01000, 106.
22.04000, 98.
22.07000, 79.
22.10000, 97.
22.13000, 113.
22.16000, 80.
22.19000, 94.
22.22000, 100.
22.25000, 89.
22.28000, 87.
22.31000, 85.
22.34000, 87.
22.37000, 72.
22.40000, 87.
22.43000, 77.
22.46000, 77.
22.49000, 97.
22.52000, 106.
22.55000, 116.
22.58000, 131.
22.61000, 119.
22.64000, 116.
22.67000, 151.
22.70000, 136.
22.73000, 139.
22.76000, 140.
22.79000, 121.
22.82000, 96.
22.85000, 89.
22.88000, 79.
22.91000, 76.
22.94000, 81.
22.97000, 75.
23.00000, 80.
23.03000, 80.
23.06000, 83.
23.09000, 78.
23.12000, 90.
23.15000, 85.
23.18000, 94.
23.21000, 68.
23.24000, 74.
23.27000, 88.
23.30000, 87.
23.33000, 86.
23.36000, 68.
23.39000, 77.
23.42000, 75.
23.45000, 72.
23.48000, 67.
23.51000, 69.
23.54000, 61.
23.57000, 61.
23.60000, 64.
23.63000, 71.
23.66000, 83.
23.69000, 79.
23.72000, 73.
23.75000, 56.
23.78000, 73.
23.81000, 62.
23.84000, 58.
23.87000, 87.
23.90000, 78.
23.93000, 52.
23.96000, 69.
23.99000, 60.
24.02000, 79.
24.05000, 64.
24.08000, 56.
24.11000, 64.
24.14000, 70.
24.17000, 48.
24.20000, 53.
24.23000, 78.
24.26000, 84.
24.29000, 71.
24.32000, 57.
24.35000, 56.
24.38000, 57.
24.41000, 57.
24.44000, 60.
24.47000, 62.
24.50000, 61.
24.53000, 76.
24.56000, 63.
24.59000, 51.
24.62000, 74.
24.65000, 82.
24.68000, 81.
24.71000, 62.
24.74000, 55.
24.77000, 66.
24.80000, 68.
24.83000, 68.
24.86000, 76.
24.89000, 66.
24.92000, 56.
24.95000, 60.
24.98000, 64.
25.01000, 77.
25.04000, 84.
25.07000, 65.
25.10000, 69.
25.13000, 70.
25.16000, 63.
25.19000, 81.
25.22000, 65.
25.25000, 87.
25.28000, 64.
25.31000, 59.
25.34000, 68.
25.37000, 64.
25.40000, 69.
25.43000, 60.
25.46000, 69.
25.49000, 73.
25.52000, 84.
25.55000, 62.
25.58000, 61.
25.61000, 53.
25.64000, 63.
25.67000, 71.
25.70000, 56.
25.73000, 65.
25.76000, 60.
25.79000, 58.
25.82000, 62.
25.85000, 52.
25.88000, 59.
25.91000, 54.
25.94000, 43.
25.97000, 61.
26.00000, 58.
26.03000, 60.
26.06000, 67.
26.09000, 59.
26.12000, 62.
26.15000, 64.
26.18000, 55.
26.21000, 56.
26.24000, 53.
26.27000, 61.
26.30000, 51.
26.33000, 68.
26.36000, 53.
26.39000, 37.
26.42000, 54.
26.45000, 50.
26.48000, 47.
26.51000, 51.
26.54000, 69.
26.57000, 52.
26.60000, 60.
26.63000, 56.
26.66000, 52.
26.69000, 46.
26.72000, 53.
26.75000, 66.
26.78000, 58.
26.81000, 53.
26.84000, 62.
26.87000, 59.
26.90000, 83.
26.93000, 57.
26.96000, 52.
26.99000, 49.
27.02000, 62.
27.05000, 52.
27.08000, 47.
27.11000, 48.
27.14000, 55.
27.17000, 44.
27.20000, 51.
27.23000, 59.
27.26000, 50.
27.29000, 43.
27.32000, 55.
27.35000, 49.
27.38000, 50.
27.41000, 50.
27.44000, 56.
27.47000, 49.
27.50000, 53.
27.53000, 54.
27.56000, 51.
27.59000, 55.
27.62000, 54.
27.65000, 58.
27.68000, 54.
27.71000, 48.
27.74000, 41.
27.77000, 38.
27.80000, 42.
27.83000, 44.
27.86000, 43.
27.89000, 47.
27.92000, 45.
27.95000, 40.
27.98000, 40.
28.01000, 46.
28.04000, 38.
28.07000, 47.
28.10000, 60.
28.13000, 46.
28.16000, 45.
28.19000, 39.
28.22000, 38.
28.25000, 38.
28.28000, 39.
28.31000, 41.
28.34000, 42.
28.37000, 52.
28.40000, 39.
28.43000, 49.
28.46000, 42.
28.49000, 41.
28.52000, 45.
28.55000, 57.
28.58000, 41.
28.61000, 39.
28.64000, 31.
28.67000, 29.
28.70000, 56.
28.73000, 32.
28.76000, 35.
28.79000, 54.
28.82000, 36.
28.85000, 32.
28.88000, 45.
28.91000, 46.
28.94000, 46.
28.97000, 45.
29.00000, 47.
29.03000, 38.
29.06000, 40.
29.09000, 39.
29.12000, 49.
29.15000, 41.
29.18000, 52.
29.21000, 35.
29.24000, 43.
29.27000, 34.
29.30000, 31.
29.33000, 41.
29.36000, 36.
29.39000, 43.
29.42000, 41.
29.45000, 33.
29.48000, 43.
29.51000, 29.
29.54000, 40.
29.57000, 34.
29.60000, 32.
29.63000, 34.
29.66000, 36.
29.69000, 37.
29.72000, 43.
29.75000, 36.
29.78000, 31.
29.81000, 34.
29.84000, 37.
29.87000, 47.
29.90000, 51.
29.93000, 31.
29.96000, 35.
29.99000, 45.
30.02000, 37.
30.05000, 35.
30.08000, 45.
30.11000, 35.
30.14000, 27.
30.17000, 30.
30.20000, 34.
30.23000, 32.
30.26000, 39.
30.29000, 35.
30.32000, 40.
30.35000, 33.
30.38000, 24.
30.41000, 21.
30.44000, 31.
30.47000, 30.
30.50000, 39.
30.53000, 33.
30.56000, 32.
30.59000, 37.
30.62000, 46.
30.65000, 37.
30.68000, 29.
30.71000, 22.
30.74000, 28.
30.77000, 27.
30.80000, 30.
30.83000, 31.
30.86000, 32.
30.89000, 37.
30.92000, 28.
30.95000, 33.
30.98000, 37.
31.01000, 36.
31.04000, 35.
31.07000, 40.
31.10000, 38.
31.13000, 35.
31.16000, 24.
31.19000, 22.
31.22000, 25.
31.25000, 34.
31.28000, 31.
31.31000, 27.
31.34000, 23.
31.37000, 27.
31.40000, 30.
31.43000, 42.
31.46000, 46.
31.49000, 27.
31.52000, 40.
31.55000, 30.
31.58000, 34.
31.61000, 23.
31.64000, 23.
31.67000, 38.
31.70000, 30.
31.73000, 36.
31.76000, 32.
31.79000, 42.
31.82000, 32.
31.85000, 31.
31.88000, 37.
31.91000, 26.
31.94000, 34.
31.97000, 35.
32.00000, 40.
32.03000, 35.
32.06000, 38.
32.09000, 46.
32.12000, 33.
32.15000, 38.
32.18000, 32.
32.21000, 37.
32.24000, 33.
32.27000, 29.
32.30000, 35.
32.33000, 22.
32.36000, 25.
32.39000, 36.
32.42000, 33.
32.45000, 24.
32.48000, 27.
32.51000, 32.
32.54000, 23.
32.57000, 20.
32.60000, 28.
32.63000, 35.
32.66000, 23.
32.69000, 17.
32.72000, 32.
32.75000, 26.
32.78000, 30.
32.81000, 21.
32.84000, 25.
32.87000, 22.
32.90000, 18.
32.93000, 24.
32.96000, 22.
32.99000, 23.
33.02000, 19.
33.05000, 25.
33.08000, 10.
33.11000, 19.
33.14000, 19.
33.17000, 22.
33.20000, 15.
33.23000, 20.
33.26000, 28.
33.29000, 22.
33.32000, 15.
33.35000, 24.
33.38000, 23.
33.41000, 25.
33.44000, 24.
33.47000, 25.
33.50000, 24.
33.53000, 29.
33.56000, 22.
33.59000, 23.
33.62000, 20.
33.65000, 25.
33.68000, 25.
33.71000, 19.
33.74000, 29.
33.77000, 28.
33.80000, 26.
33.83000, 14.
33.86000, 16.
33.89000, 20.
33.92000, 17.
33.95000, 23.
33.98000, 16.
34.01000, 22.
34.04000, 25.
34.07000, 18.
34.10000, 19.
34.13000, 23.
34.16000, 21.
34.19000, 16.
34.22000, 27.
34.25000, 19.
34.28000, 21.
34.31000, 15.
34.34000, 19.
34.37000, 17.
34.40000, 15.
34.43000, 19.
34.46000, 11.
34.49000, 18.
34.52000, 17.
34.55000, 22.
34.58000, 23.
34.61000, 13.
34.64000, 17.
34.67000, 18.
34.70000, 21.
34.73000, 17.
34.76000, 18.
34.79000, 19.
34.82000, 28.
34.85000, 16.
34.88000, 20.
34.91000, 20.
34.94000, 15.
34.97000, 21.
35.00000, 7.
35.03000, 24.
35.06000, 12.
35.09000, 14.
35.12000, 14.
35.15000, 22.
35.18000, 17.
35.21000, 22.
35.24000, 7.
35.27000, 20.
35.30000, 19.
35.33000, 18.
35.36000, 14.
35.39000, 16.
35.42000, 14.
35.45000, 15.
35.48000, 15.
35.51000, 11.
35.54000, 15.
35.57000, 15.
35.60000, 17.
35.63000, 11.
35.66000, 15.
35.69000, 17.
35.72000, 18.
35.75000, 8.
35.78000, 18.
35.81000, 8.
35.84000, 20.
35.87000, 20.
35.90000, 14.
35.93000, 11.
35.96000, 10.
35.99000, 18.
36.02000, 13.
36.05000, 18.
36.08000, 16.
36.11000, 11.
36.14000, 8.
36.17000, 7.
36.20000, 17.
36.23000, 19.
36.26000, 20.
36.29000, 21.
36.32000, 11.
36.35000, 17.
36.38000, 16.
36.41000, 14.
36.44000, 17.
36.47000, 13.
36.50000, 14.
36.53000, 18.
36.56000, 7.
36.59000, 17.
36.62000, 11.
36.65000, 13.
36.68000, 8.
36.71000, 7.
36.74000, 16.
36.77000, 12.
36.80000, 12.
36.83000, 15.
36.86000, 8.
36.89000, 14.
36.92000, 9.
36.95000, 11.
36.98000, 12.
37.01000, 13.
37.04000, 18.
37.07000, 4.
37.10000, 11.
37.13000, 9.
37.16000, 7.
37.19000, 20.
37.22000, 7.
37.25000, 11.
37.28000, 4.
37.31000, 16.
37.34000, 13.
37.37000, 14.
37.40000, 12.
37.43000, 13.
37.46000, 12.
37.49000, 8.
37.52000, 10.
37.55000, 7.
37.58000, 11.
37.61000, 9.
37.64000, 10.
37.67000, 9.
37.70000, 6.
37.73000, 11.
37.76000, 15.
37.79000, 9.
37.82000, 6.
37.85000, 14.
37.88000, 13.
37.91000, 10.
37.94000, 12.
37.97000, 9.
38.00000, 6.
38.03000, 11.
38.06000, 10.
38.09000, 9.
38.12000, 11.
38.15000, 14.
38.18000, 4.
38.21000, 10.
38.24000, 10.
38.27000, 9.
38.30000, 5.
38.33000, 12.
38.36000, 12.
38.39000, 13.
38.42000, 5.
38.45000, 4.
38.48000, 9.
38.51000, 9.
38.54000, 13.
38.57000, 9.
38.60000, 9.
38.63000, 8.
38.66000, 13.
38.69000, 5.
38.72000, 8.
38.75000, 11.
38.78000, 8.
38.81000, 8.
38.84000, 11.
38.87000, 4.
38.90000, 9.
38.93000, 13.
38.96000, 10.
38.99000, 8.
39.02000, 8.
39.05000, 3.
39.08000, 6.
39.11000, 7.
39.14000, 6.
39.17000, 6.
39.20000, 11.
39.23000, 5.
39.26000, 7.
39.29000, 11.
39.32000, 5.
39.35000, 8.
39.38000, 5.
39.41000, 3.
39.44000, 4.
39.47000, 9.
39.50000, 8.
39.53000, 5.
39.56000, 5.
39.59000, 2.
39.62000, 4.
39.65000, 3.
39.68000, 8.
39.71000, 7.
39.74000, 5.
39.77000, 3.
39.80000, 8.
39.83000, 7.
39.86000, 9.
39.89000, 6.
39.92000, 10.
39.95000, 4.
39.98000, 8.
40.01000, 4.
40.04000, 3.
40.07000, 3.
40.10000, 4.
40.13000, 3.
40.16000, 3.
40.19000, 7.
40.22000, 1.
40.25000, 5.
40.28000, 1.
40.31000, 3.
40.34000, 5.
40.37000, 5.
40.40000, 5.
40.43000, 2.
40.46000, 5.
40.49000, 4.
40.52000, 3.
40.55000, 0.
#ENDOFDATA   :