File: sample_data/data/Spectrum value from standard/PACS 2/Spectrum 18.txt
#FORMAT      : EMSA/MAS Spectral Data File
#VERSION     : 1.0
#TITLE       : Spectrum 18
#DATE        : 21-AUG-2025
#TIME        : 15:22
#OWNER       : XGT7200
#NPOINTS     : 4096.
#NCOLUMNS    : 1.
#XUNITS      : keV
#YUNITS      : counts
#DATATYPE    : XY
#XPERCHAN    : 0.0100000
#OFFSET      : -0.400000
#SIGNALTYPE  : EDS
#CHOFFSET    : 40.0000
#LIVETIME    : 30
#REALTIME    : 39.6368
#BEAMKV      : 50.0000
#PROBECUR    : 701000.
#MAGCAM      : 100.000
#XTILTSTGE   : 0.0
#AZIMANGLE   : 0.0
#ELEVANGLE   : 45.0
#XPOSITION mm: 0.0000
#YPOSITION mm: 0.0000
#ZPOSITION mm: 0.0000
##OXINSTPT   : 4
##OXINSTSTROB: 72.10
#SPECTRUM    : Spectral Data Starts Here
-0.40000, 0.
-0.37000, 0.
-0.34000, 0.
-0.31000, 0.
-0.28000, 0.
-0.25000, 0.
-0.22000, 0.
-0.19000, 0.
-0.16000, 0.
-0.13000, 0.
-0.10000, 0.
-0.07000, 0.
-0.04000, 0.
-0.01000, 0.
0.02000, 0.
0.05000, 0.
0.08000, 0.
0.11000, 0.
0.14000, 0.
0.17000, 0.
0.20000, 0.
0.23000, 0.
0.26000, 0.
0.29000, 0.
0.32000, 0.
0.35000, 3.
0.38000, 17.
0.41000, 24.
0.44000, 41.
0.47000, 51.
0.50000, 43.
0.53000, 65.
0.56000, 61.
0.59000, 60.
0.62000, 48.
0.65000, 44.
0.68000, 46.
0.71000, 36.
0.74000, 44.
0.77000, 47.
0.80000, 49.
0.83000, 50.
0.86000, 68.
0.89000, 56.
0.92000, 61.
0.95000, 57.
0.98000, 54.
1.01000, 68.
1.04000, 81.
1.07000, 66.
1.10000, 52.
1.13000, 44.
1.16000, 47.
1.19000, 46.
1.22000, 77.
1.25000, 92.
1.28000, 66.
1.31000, 66.
1.34000, 34.
1.37000, 51.
1.40000, 79.
1.43000, 232.
1.46000, 505.
1.49000, 652.
1.52000, 570.
1.55000, 326.
1.58000, 120.
1.61000, 117.
1.64000, 308.
1.67000, 1212.
1.70000, 3370.
1.73000, 5719.
1.76000, 5704.
1.79000, 3591.
1.82000, 1513.
1.85000, 536.
1.88000, 222.
1.91000, 108.
1.94000, 71.
1.97000, 75.
2.00000, 76.
2.03000, 73.
2.06000, 54.
2.09000, 49.
2.12000, 29.
2.15000, 30.
2.18000, 54.
2.21000, 100.
2.24000, 274.
2.27000, 584.
2.30000, 752.
2.33000, 801.
2.36000, 458.
2.39000, 231.
2.42000, 122.
2.45000, 108.
2.48000, 108.
2.51000, 156.
2.54000, 426.
2.57000, 838.
2.60000, 1472.
2.63000, 1816.
2.66000, 1531.
2.69000, 1059.
2.72000, 632.
2.75000, 409.
2.78000, 376.
2.81000, 347.
2.84000, 359.
2.87000, 291.
2.90000, 190.
2.93000, 119.
2.96000, 92.
2.99000, 58.
3.02000, 47.
3.05000, 37.
3.08000, 32.
3.11000, 30.
3.14000, 32.
3.17000, 47.
3.20000, 78.
3.23000, 122.
3.26000, 268.
3.29000, 494.
3.32000, 590.
3.35000, 450.
3.38000, 264.
3.41000, 120.
3.44000, 63.
3.47000, 48.
3.50000, 58.
3.53000, 78.
3.56000, 122.
3.59000, 252.
3.62000, 498.
3.65000, 906.
3.68000, 1223.
3.71000, 1270.
3.74000, 813.
3.77000, 460.
3.80000, 148.
3.83000, 56.
3.86000, 43.
3.89000, 44.
3.92000, 68.
3.95000, 117.
3.98000, 168.
4.01000, 233.
4.04000, 205.
4.07000, 150.
4.10000, 86.
4.13000, 57.
4.16000, 35.
4.19000, 31.
4.22000, 34.
4.25000, 24.
4.28000, 45.
4.31000, 43.
4.34000, 39.
4.37000, 49.
4.40000, 110.
4.43000, 199.
4.46000, 367.
4.49000, 503.
4.52000, 537.
4.55000, 424.
4.58000, 255.
4.61000, 167.
4.64000, 100.
4.67000, 101.
4.70000, 79.
4.73000, 65.
4.76000, 59.
4.79000, 89.
4.82000, 74.
4.85000, 100.
4.88000, 132.
4.91000, 139.
4.94000, 141.
4.97000, 146.
5.00000, 104.
5.03000, 62.
5.06000, 53.
5.09000, 50.
5.12000, 49.
5.15000, 67.
5.18000, 51.
5.21000, 56.
5.24000, 61.
5.27000, 65.
5.30000, 58.
5.33000, 66.
5.36000, 83.
5.39000, 76.
5.42000, 100.
5.45000, 89.
5.48000, 61.
5.51000, 67.
5.54000, 67.
5.57000, 57.
5.60000, 63.
5.63000, 57.
5.66000, 48.
5.69000, 60.
5.72000, 56.
5.75000, 63.
5.78000, 86.
5.81000, 113.
5.84000, 132.
5.87000, 171.
5.90000, 191.
5.93000, 171.
5.96000, 129.
5.99000, 110.
6.02000, 68.
6.05000, 65.
6.08000, 59.
6.11000, 91.
6.14000, 85.
6.17000, 136.
6.20000, 185.
6.23000, 484.
6.26000, 1263.
6.29000, 3145.
6.32000, 6499.
6.35000, 10664.
6.38000, 13642.
6.41000, 14171.
6.44000, 11680.
6.47000, 7463.
6.50000, 3926.
6.53000, 1615.
6.56000, 552.
6.59000, 225.
6.62000, 139.
6.65000, 110.
6.68000, 103.
6.71000, 96.
6.74000, 74.
6.77000, 114.
6.80000, 138.
6.83000, 135.
6.86000, 169.
6.89000, 247.
6.92000, 398.
6.95000, 768.
6.98000, 1318.
7.01000, 1920.
7.04000, 2331.
7.07000, 2271.
7.10000, 1769.
7.13000, 1230.
7.16000, 645.
7.19000, 307.
7.22000, 166.
7.25000, 100.
7.28000, 74.
7.31000, 65.
7.34000, 72.
7.37000, 76.
7.40000, 75.
7.43000, 78.
7.46000, 75.
7.49000, 83.
7.52000, 81.
7.55000, 91.
7.58000, 67.
7.61000, 73.
7.64000, 65.
7.67000, 77.
7.70000, 65.
7.73000, 66.
7.76000, 90.
7.79000, 95.
7.82000, 95.
7.85000, 87.
7.88000, 95.
7.91000, 124.
7.94000, 154.
7.97000, 167.
8.00000, 227.
8.03000, 246.
8.06000, 213.
8.09000, 226.
8.12000, 180.
8.15000, 174.
8.18000, 136.
8.21000, 105.
8.24000, 100.
8.27000, 100.
8.30000, 102.
8.33000, 103.
8.36000, 117.
8.39000, 126.
8.42000, 101.
8.45000, 101.
8.48000, 130.
8.51000, 149.
8.54000, 202.
8.57000, 250.
8.60000, 285.
8.63000, 308.
8.66000, 301.
8.69000, 251.
8.72000, 206.
8.75000, 167.
8.78000, 126.
8.81000, 127.
8.84000, 134.
8.87000, 140.
8.90000, 138.
8.93000, 128.
8.96000, 128.
8.99000, 150.
9.02000, 132.
9.05000, 116.
9.08000, 111.
9.11000, 107.
9.14000, 111.
9.17000, 102.
9.20000, 122.
9.23000, 119.
9.26000, 115.
9.29000, 144.
9.32000, 104.
9.35000, 109.
9.38000, 99.
9.41000, 126.
9.44000, 121.
9.47000, 154.
9.50000, 125.
9.53000, 158.
9.56000, 134.
9.59000, 154.
9.62000, 147.
9.65000, 147.
9.68000, 111.
9.71000, 115.
9.74000, 125.
9.77000, 123.
9.80000, 111.
9.83000, 127.
9.86000, 117.
9.89000, 132.
9.92000, 132.
9.95000, 122.
9.98000, 134.
10.01000, 112.
10.04000, 131.
10.07000, 133.
10.10000, 139.
10.13000, 137.
10.16000, 126.
10.19000, 125.
10.22000, 133.
10.25000, 120.
10.28000, 118.
10.31000, 135.
10.34000, 122.
10.37000, 131.
10.40000, 140.
10.43000, 157.
10.46000, 161.
10.49000, 184.
10.52000, 213.
10.55000, 225.
10.58000, 176.
10.61000, 172.
10.64000, 133.
10.67000, 148.
10.70000, 132.
10.73000, 103.
10.76000, 145.
10.79000, 124.
10.82000, 111.
10.85000, 125.
10.88000, 124.
10.91000, 141.
10.94000, 137.
10.97000, 127.
11.00000, 154.
11.03000, 134.
11.06000, 141.
11.09000, 144.
11.12000, 128.
11.15000, 129.
11.18000, 125.
11.21000, 156.
11.24000, 137.
11.27000, 149.
11.30000, 143.
11.33000, 131.
11.36000, 145.
11.39000, 142.
11.42000, 133.
11.45000, 146.
11.48000, 164.
11.51000, 130.
11.54000, 138.
11.57000, 146.
11.60000, 148.
11.63000, 138.
11.66000, 158.
11.69000, 147.
11.72000, 159.
11.75000, 186.
11.78000, 217.
11.81000, 240.
11.84000, 296.
11.87000, 344.
11.90000, 330.
11.93000, 328.
11.96000, 270.
11.99000, 240.
12.02000, 179.
12.05000, 177.
12.08000, 146.
12.11000, 168.
12.14000, 131.
12.17000, 160.
12.20000, 140.
12.23000, 152.
12.26000, 155.
12.29000, 163.
12.32000, 151.
12.35000, 140.
12.38000, 170.
12.41000, 159.
12.44000, 149.
12.47000, 167.
12.50000, 180.
12.53000, 192.
12.56000, 197.
12.59000, 205.
12.62000, 217.
12.65000, 176.
12.68000, 189.
12.71000, 205.
12.74000, 201.
12.77000, 168.
12.80000, 192.
12.83000, 140.
12.86000, 171.
12.89000, 182.
12.92000, 180.
12.95000, 136.
12.98000, 156.
13.01000, 158.
13.04000, 159.
13.07000, 153.
13.10000, 157.
13.13000, 171.
13.16000, 174.
13.19000, 155.
13.22000, 182.
13.25000, 200.
13.28000, 201.
13.31000, 218.
13.34000, 210.
13.37000, 202.
13.40000, 208.
13.43000, 204.
13.46000, 198.
13.49000, 185.
13.52000, 175.
13.55000, 151.
13.58000, 141.
13.61000, 163.
13.64000, 161.
13.67000, 169.
13.70000, 157.
13.73000, 160.
13.76000, 127.
13.79000, 135.
13.82000, 163.
13.85000, 157.
13.88000, 199.
13.91000, 153.
13.94000, 157.
13.97000, 233.
14.00000, 224.
14.03000, 287.
14.06000, 358.
14.09000, 427.
14.12000, 420.
14.15000, 408.
14.18000, 374.
14.21000, 349.
14.24000, 256.
14.27000, 231.
14.30000, 201.
14.33000, 175.
14.36000, 144.
14.39000, 147.
14.42000, 126.
14.45000, 131.
14.48000, 162.
14.51000, 144.
14.54000, 146.
14.57000, 158.
14.60000, 143.
14.63000, 162.
14.66000, 172.
14.69000, 166.
14.72000, 150.
14.75000, 179.
14.78000, 163.
14.81000, 175.
14.84000, 138.
14.87000, 186.
14.90000, 156.
14.93000, 181.
14.96000, 214.
14.99000, 153.
15.02000, 152.
15.05000, 167.
15.08000, 150.
15.11000, 127.
15.14000, 152.
15.17000, 149.
15.20000, 146.
15.23000, 184.
15.26000, 161.
15.29000, 151.
15.32000, 146.
15.35000, 146.
15.38000, 150.
15.41000, 145.
15.44000, 150.
15.47000, 128.
15.50000, 143.
15.53000, 167.
15.56000, 190.
15.59000, 178.
15.62000, 213.
15.65000, 252.
15.68000, 277.
15.71000, 297.
15.74000, 312.
15.77000, 293.
15.80000, 275.
15.83000, 218.
15.86000, 221.
15.89000, 205.
15.92000, 174.
15.95000, 176.
15.98000, 156.
16.01000, 148.
16.04000, 168.
16.07000, 153.
16.10000, 154.
16.13000, 145.
16.16000, 162.
16.19000, 140.
16.22000, 152.
16.25000, 158.
16.28000, 143.
16.31000, 149.
16.34000, 134.
16.37000, 147.
16.40000, 144.
16.43000, 146.
16.46000, 144.
16.49000, 144.
16.52000, 170.
16.55000, 160.
16.58000, 169.
16.61000, 150.
16.64000, 153.
16.67000, 145.
16.70000, 162.
16.73000, 157.
16.76000, 138.
16.79000, 156.
16.82000, 133.
16.85000, 166.
16.88000, 155.
16.91000, 170.
16.94000, 141.
16.97000, 150.
17.00000, 157.
17.03000, 169.
17.06000, 145.
17.09000, 176.
17.12000, 124.
17.15000, 144.
17.18000, 163.
17.21000, 159.
17.24000, 151.
17.27000, 160.
17.30000, 166.
17.33000, 159.
17.36000, 176.
17.39000, 154.
17.42000, 168.
17.45000, 157.
17.48000, 175.
17.51000, 189.
17.54000, 195.
17.57000, 210.
17.60000, 207.
17.63000, 191.
17.66000, 174.
17.69000, 201.
17.72000, 201.
17.75000, 189.
17.78000, 204.
17.81000, 192.
17.84000, 236.
17.87000, 196.
17.90000, 221.
17.93000, 215.
17.96000, 223.
17.99000, 203.
18.02000, 240.
18.05000, 260.
18.08000, 247.
18.11000, 251.
18.14000, 269.
18.17000, 257.
18.20000, 287.
18.23000, 293.
18.26000, 300.
18.29000, 331.
18.32000, 351.
18.35000, 368.
18.38000, 417.
18.41000, 409.
18.44000, 462.
18.47000, 510.
18.50000, 572.
18.53000, 652.
18.56000, 693.
18.59000, 762.
18.62000, 753.
18.65000, 848.
18.68000, 896.
18.71000, 901.
18.74000, 872.
18.77000, 942.
18.80000, 885.
18.83000, 969.
18.86000, 901.
18.89000, 894.
18.92000, 853.
18.95000, 777.
18.98000, 721.
19.01000, 665.
19.04000, 634.
19.07000, 590.
19.10000, 579.
19.13000, 504.
19.16000, 481.
19.19000, 441.
19.22000, 378.
19.25000, 374.
19.28000, 334.
19.31000, 314.
19.34000, 285.
19.37000, 286.
19.40000, 291.
19.43000, 268.
19.46000, 232.
19.49000, 242.
19.52000, 218.
19.55000, 208.
19.58000, 210.
19.61000, 201.
19.64000, 182.
19.67000, 179.
19.70000, 196.
19.73000, 160.
19.76000, 184.
19.79000, 158.
19.82000, 169.
19.85000, 188.
19.88000, 221.
19.91000, 233.
19.94000, 276.
19.97000, 338.
20.00000, 358.
20.03000, 411.
20.06000, 499.
20.09000, 489.
20.12000, 523.
20.15000, 582.
20.18000, 528.
20.21000, 520.
20.24000, 461.
20.27000, 399.
20.30000, 333.
20.33000, 258.
20.36000, 181.
20.39000, 176.
20.42000, 152.
20.45000, 151.
20.48000, 149.
20.51000, 165.
20.54000, 156.
20.57000, 164.
20.60000, 165.
20.63000, 159.
20.66000, 200.
20.69000, 205.
20.72000, 207.
20.75000, 209.
20.78000, 218.
20.81000, 212.
20.84000, 234.
20.87000, 267.
20.90000, 249.
20.93000, 235.
20.96000, 253.
20.99000, 260.
21.02000, 241.
21.05000, 232.
21.08000, 234.
21.11000, 260.
21.14000, 238.
21.17000, 211.
21.20000, 218.
21.23000, 217.
21.26000, 225.
21.29000, 183.
21.32000, 175.
21.35000, 191.
21.38000, 183.
21.41000, 138.
21.44000, 153.
21.47000, 156.
21.50000, 140.
21.53000, 129.
21.56000, 148.
21.59000, 130.
21.62000, 141.
21.65000, 124.
21.68000, 114.
21.71000, 113.
21.74000, 107.
21.77000, 110.
21.80000, 108.
21.83000, 98.
21.86000, 111.
21.89000, 107.
21.92000, 110.
21.95000, 93.
21.98000, 86.
22.01000, 90.
22.04000, 105.
22.07000, 97.
22.10000, 106.
22.13000, 95.
22.16000, 92.
22.19000, 81.
22.22000, 100.
22.25000, 75.
22.28000, 85.
22.31000, 83.
22.34000, 74.
22.37000, 88.
22.40000, 79.
22.43000, 84.
22.46000, 83.
22.49000, 111.
22.52000, 95.
22.55000, 108.
22.58000, 111.
22.61000, 120.
22.64000, 148.
22.67000, 157.
22.70000, 128.
22.73000, 126.
22.76000, 121.
22.79000, 108.
22.82000, 112.
22.85000, 95.
22.88000, 94.
22.91000, 87.
22.94000, 96.
22.97000, 70.
23.00000, 74.
23.03000, 101.
23.06000, 86.
23.09000, 76.
23.12000, 86.
23.15000, 87.
23.18000, 78.
23.21000, 72.
23.24000, 70.
23.27000, 74.
23.30000, 70.
23.33000, 57.
23.36000, 77.
23.39000, 65.
23.42000, 71.
23.45000, 85.
23.48000, 59.
23.51000, 85.
23.54000, 74.
23.57000, 66.
23.60000, 75.
23.63000, 77.
23.66000, 51.
23.69000, 70.
23.72000, 59.
23.75000, 61.
23.78000, 66.
23.81000, 61.
23.84000, 62.
23.87000, 67.
23.90000, 61.
23.93000, 62.
23.96000, 71.
23.99000, 79.
24.02000, 58.
24.05000, 69.
24.08000, 72.
24.11000, 68.
24.14000, 66.
24.17000, 83.
24.20000, 82.
24.23000, 65.
24.26000, 69.
24.29000, 67.
24.32000, 78.
24.35000, 71.
24.38000, 55.
24.41000, 66.
24.44000, 58.
24.47000, 56.
24.50000, 65.
24.53000, 74.
24.56000, 67.
24.59000, 62.
24.62000, 60.
24.65000, 74.
24.68000, 71.
24.71000, 67.
24.74000, 67.
24.77000, 59.
24.80000, 73.
24.83000, 69.
24.86000, 64.
24.89000, 64.
24.92000, 73.
24.95000, 64.
24.98000, 61.
25.01000, 68.
25.04000, 67.
25.07000, 62.
25.10000, 75.
25.13000, 79.
25.16000, 62.
25.19000, 71.
25.22000, 64.
25.25000, 81.
25.28000, 62.
25.31000, 66.
25.34000, 57.
25.37000, 57.
25.40000, 61.
25.43000, 47.
25.46000, 64.
25.49000, 53.
25.52000, 55.
25.55000, 53.
25.58000, 56.
25.61000, 58.
25.64000, 56.
25.67000, 57.
25.70000, 64.
25.73000, 49.
25.76000, 59.
25.79000, 57.
25.82000, 80.
25.85000, 63.
25.88000, 49.
25.91000, 55.
25.94000, 69.
25.97000, 46.
26.00000, 74.
26.03000, 61.
26.06000, 57.
26.09000, 63.
26.12000, 59.
26.15000, 50.
26.18000, 55.
26.21000, 61.
26.24000, 53.
26.27000, 54.
26.30000, 51.
26.33000, 56.
26.36000, 52.
26.39000, 74.
26.42000, 57.
26.45000, 42.
26.48000, 68.
26.51000, 66.
26.54000, 59.
26.57000, 47.
26.60000, 47.
26.63000, 44.
26.66000, 44.
26.69000, 40.
26.72000, 48.
26.75000, 55.
26.78000, 55.
26.81000, 55.
26.84000, 44.
26.87000, 56.
26.90000, 60.
26.93000, 47.
26.96000, 57.
26.99000, 56.
27.02000, 54.
27.05000, 41.
27.08000, 46.
27.11000, 45.
27.14000, 55.
27.17000, 57.
27.20000, 38.
27.23000, 54.
27.26000, 59.
27.29000, 44.
27.32000, 55.
27.35000, 44.
27.38000, 54.
27.41000, 57.
27.44000, 56.
27.47000, 52.
27.50000, 52.
27.53000, 56.
27.56000, 47.
27.59000, 51.
27.62000, 42.
27.65000, 53.
27.68000, 47.
27.71000, 45.
27.74000, 51.
27.77000, 31.
27.80000, 37.
27.83000, 53.
27.86000, 41.
27.89000, 52.
27.92000, 42.
27.95000, 45.
27.98000, 56.
28.01000, 43.
28.04000, 50.
28.07000, 41.
28.10000, 41.
28.13000, 31.
28.16000, 46.
28.19000, 42.
28.22000, 54.
28.25000, 47.
28.28000, 44.
28.31000, 39.
28.34000, 49.
28.37000, 42.
28.40000, 57.
28.43000, 67.
28.46000, 38.
28.49000, 49.
28.52000, 41.
28.55000, 38.
28.58000, 48.
28.61000, 43.
28.64000, 38.
28.67000, 42.
28.70000, 49.
28.73000, 44.
28.76000, 43.
28.79000, 36.
28.82000, 55.
28.85000, 49.
28.88000, 46.
28.91000, 38.
28.94000, 43.
28.97000, 43.
29.00000, 42.
29.03000, 48.
29.06000, 49.
29.09000, 35.
29.12000, 46.
29.15000, 35.
29.18000, 32.
29.21000, 33.
29.24000, 36.
29.27000, 41.
29.30000, 48.
29.33000, 34.
29.36000, 46.
29.39000, 37.
29.42000, 33.
29.45000, 44.
29.48000, 33.
29.51000, 47.
29.54000, 41.
29.57000, 36.
29.60000, 22.
29.63000, 40.
29.66000, 39.
29.69000, 35.
29.72000, 35.
29.75000, 42.
29.78000, 43.
29.81000, 35.
29.84000, 40.
29.87000, 33.
29.90000, 36.
29.93000, 42.
29.96000, 41.
29.99000, 36.
30.02000, 42.
30.05000, 46.
30.08000, 42.
30.11000, 24.
30.14000, 32.
30.17000, 47.
30.20000, 37.
30.23000, 46.
30.26000, 22.
30.29000, 29.
30.32000, 25.
30.35000, 42.
30.38000, 32.
30.41000, 28.
30.44000, 38.
30.47000, 41.
30.50000, 46.
30.53000, 34.
30.56000, 25.
30.59000, 37.
30.62000, 19.
30.65000, 31.
30.68000, 28.
30.71000, 27.
30.74000, 39.
30.77000, 38.
30.80000, 43.
30.83000, 29.
30.86000, 35.
30.89000, 42.
30.92000, 27.
30.95000, 35.
30.98000, 30.
31.01000, 21.
31.04000, 28.
31.07000, 36.
31.10000, 33.
31.13000, 33.
31.16000, 30.
31.19000, 30.
31.22000, 19.
31.25000, 27.
31.28000, 33.
31.31000, 38.
31.34000, 36.
31.37000, 29.
31.40000, 21.
31.43000, 30.
31.46000, 39.
31.49000, 27.
31.52000, 28.
31.55000, 30.
31.58000, 32.
31.61000, 36.
31.64000, 31.
31.67000, 39.
31.70000, 29.
31.73000, 44.
31.76000, 41.
31.79000, 39.
31.82000, 36.
31.85000, 33.
31.88000, 26.
31.91000, 34.
31.94000, 41.
31.97000, 34.
32.00000, 37.
32.03000, 39.
32.06000, 36.
32.09000, 41.
32.12000, 32.
32.15000, 42.
32.18000, 32.
32.21000, 27.
32.24000, 32.
32.27000, 29.
32.30000, 31.
32.33000, 42.
32.36000, 23.
32.39000, 27.
32.42000, 38.
32.45000, 20.
32.48000, 23.
32.51000, 24.
32.54000, 24.
32.57000, 19.
32.60000, 29.
32.63000, 16.
32.66000, 26.
32.69000, 20.
32.72000, 24.
32.75000, 21.
32.78000, 25.
32.81000, 28.
32.84000, 33.
32.87000, 29.
32.90000, 20.
32.93000, 20.
32.96000, 23.
32.99000, 23.
33.02000, 17.
33.05000, 28.
33.08000, 20.
33.11000, 20.
33.14000, 20.
33.17000, 20.
33.20000, 23.
33.23000, 18.
33.26000, 21.
33.29000, 15.
33.32000, 28.
33.35000, 26.
33.38000, 24.
33.41000, 22.
33.44000, 18.
33.47000, 28.
33.50000, 29.
33.53000, 24.
33.56000, 20.
33.59000, 21.
33.62000, 18.
33.65000, 31.
33.68000, 18.
33.71000, 21.
33.74000, 17.
33.77000, 15.
33.80000, 23.
33.83000, 26.
33.86000, 25.
33.89000, 21.
33.92000, 25.
33.95000, 20.
33.98000, 19.
34.01000, 16.
34.04000, 33.
34.07000, 16.
34.10000, 20.
34.13000, 17.
34.16000, 21.
34.19000, 17.
34.22000, 25.
34.25000, 18.
34.28000, 24.
34.31000, 18.
34.34000, 25.
34.37000, 22.
34.40000, 23.
34.43000, 13.
34.46000, 21.
34.49000, 18.
34.52000, 20.
34.55000, 13.
34.58000, 16.
34.61000, 22.
34.64000, 15.
34.67000, 19.
34.70000, 24.
34.73000, 21.
34.76000, 16.
34.79000, 21.
34.82000, 10.
34.85000, 20.
34.88000, 21.
34.91000, 13.
34.94000, 13.
34.97000, 13.
35.00000, 15.
35.03000, 18.
35.06000, 23.
35.09000, 17.
35.12000, 12.
35.15000, 15.
35.18000, 17.
35.21000, 27.
35.24000, 12.
35.27000, 27.
35.30000, 18.
35.33000, 10.
35.36000, 13.
35.39000, 16.
35.42000, 17.
35.45000, 15.
35.48000, 20.
35.51000, 24.
35.54000, 15.
35.57000, 12.
35.60000, 28.
35.63000, 20.
35.66000, 14.
35.69000, 20.
35.72000, 14.
35.75000, 7.
35.78000, 11.
35.81000, 14.
35.84000, 12.
35.87000, 11.
35.90000, 13.
35.93000, 17.
35.96000, 13.
35.99000, 10.
36.02000, 20.
36.05000, 14.
36.08000, 22.
36.11000, 20.
36.14000, 14.
36.17000, 19.
36.20000, 23.
36.23000, 17.
36.26000, 18.
36.29000, 14.
36.32000, 12.
36.35000, 17.
36.38000, 13.
36.41000, 13.
36.44000, 13.
36.47000, 15.
36.50000, 9.
36.53000, 7.
36.56000, 15.
36.59000, 15.
36.62000, 9.
36.65000, 14.
36.68000, 13.
36.71000, 10.
36.74000, 12.
36.77000, 11.
36.80000, 9.
36.83000, 9.
36.86000, 16.
36.89000, 12.
36.92000, 6.
36.95000, 15.
36.98000, 11.
37.01000, 10.
37.04000, 11.
37.07000, 7.
37.10000, 9.
37.13000, 13.
37.16000, 13.
37.19000, 5.
37.22000, 10.
37.25000, 8.
37.28000, 5.
37.31000, 10.
37.34000, 12.
37.37000, 13.
37.40000, 11.
37.43000, 11.
37.46000, 12.
37.49000, 14.
37.52000, 8.
37.55000, 10.
37.58000, 16.
37.61000, 9.
37.64000, 8.
37.67000, 11.
37.70000, 15.
37.73000, 8.
37.76000, 10.
37.79000, 6.
37.82000, 6.
37.85000, 5.
37.88000, 9.
37.91000, 7.
37.94000, 12.
37.97000, 4.
38.00000, 10.
38.03000, 9.
38.06000, 7.
38.09000, 11.
38.12000, 14.
38.15000, 8.
38.18000, 10.
38.21000, 11.
38.24000, 11.
38.27000, 8.
38.30000, 9.
38.33000, 14.
38.36000, 8.
38.39000, 14.
38.42000, 10.
38.45000, 13.
38.48000, 16.
38.51000, 13.
38.54000, 9.
38.57000, 13.
38.60000, 7.
38.63000, 9.
38.66000, 8.
38.69000, 7.
38.72000, 5.
38.75000, 6.
38.78000, 15.
38.81000, 6.
38.84000, 7.
38.87000, 6.
38.90000, 6.
38.93000, 8.
38.96000, 8.
38.99000, 9.
39.02000, 4.
39.05000, 4.
39.08000, 10.
39.11000, 3.
39.14000, 14.
39.17000, 5.
39.20000, 7.
39.23000, 9.
39.26000, 10.
39.29000, 6.
39.32000, 9.
39.35000, 9.
39.38000, 11.
39.41000, 5.
39.44000, 8.
39.47000, 4.
39.50000, 6.
39.53000, 8.
39.56000, 3.
39.59000, 9.
39.62000, 8.
39.65000, 6.
39.68000, 4.
39.71000, 11.
39.74000, 5.
39.77000, 6.
39.80000, 3.
39.83000, 2.
39.86000, 1.
39.89000, 4.
39.92000, 3.
39.95000, 4.
39.98000, 2.
40.01000, 5.
40.04000, 8.
40.07000, 4.
40.10000, 1.
40.13000, 4.
40.16000, 4.
40.19000, 4.
40.22000, 3.
40.25000, 6.
40.28000, 1.
40.31000, 5.
40.34000, 1.
40.37000, 7.
40.40000, 4.
40.43000, 6.
40.46000, 5.
40.49000, 1.
40.52000, 1.
40.55000, 0.
#ENDOFDATA   :