File: sample_data/data/Spectrum value from standard/PACS 2/Spectrum 17.txt
#FORMAT      : EMSA/MAS Spectral Data File
#VERSION     : 1.0
#TITLE       : Spectrum 17
#DATE        : 21-AUG-2025
#TIME        : 15:21
#OWNER       : XGT7200
#NPOINTS     : 4096.
#NCOLUMNS    : 1.
#XUNITS      : keV
#YUNITS      : counts
#DATATYPE    : XY
#XPERCHAN    : 0.0100000
#OFFSET      : -0.400000
#SIGNALTYPE  : EDS
#CHOFFSET    : 40.0000
#LIVETIME    : 30
#REALTIME    : 39.562
#BEAMKV      : 50.0000
#PROBECUR    : 703000.
#MAGCAM      : 100.000
#XTILTSTGE   : 0.0
#AZIMANGLE   : 0.0
#ELEVANGLE   : 45.0
#XPOSITION mm: 0.0000
#YPOSITION mm: 0.0000
#ZPOSITION mm: 0.0000
##OXINSTPT   : 4
##OXINSTSTROB: 71.81
#SPECTRUM    : Spectral Data Starts Here
-0.40000, 0.
-0.37000, 0.
-0.34000, 0.
-0.31000, 0.
-0.28000, 0.
-0.25000, 0.
-0.22000, 0.
-0.19000, 0.
-0.16000, 0.
-0.13000, 0.
-0.10000, 0.
-0.07000, 0.
-0.04000, 0.
-0.01000, 0.
0.02000, 0.
0.05000, 0.
0.08000, 0.
0.11000, 0.
0.14000, 0.
0.17000, 0.
0.20000, 0.
0.23000, 0.
0.26000, 0.
0.29000, 0.
0.32000, 0.
0.35000, 3.
0.38000, 14.
0.41000, 29.
0.44000, 38.
0.47000, 39.
0.50000, 60.
0.53000, 59.
0.56000, 37.
0.59000, 57.
0.62000, 52.
0.65000, 34.
0.68000, 45.
0.71000, 36.
0.74000, 41.
0.77000, 42.
0.80000, 47.
0.83000, 57.
0.86000, 56.
0.89000, 58.
0.92000, 55.
0.95000, 59.
0.98000, 51.
1.01000, 71.
1.04000, 46.
1.07000, 56.
1.10000, 47.
1.13000, 37.
1.16000, 45.
1.19000, 54.
1.22000, 55.
1.25000, 92.
1.28000, 80.
1.31000, 41.
1.34000, 41.
1.37000, 39.
1.40000, 87.
1.43000, 245.
1.46000, 465.
1.49000, 742.
1.52000, 569.
1.55000, 318.
1.58000, 156.
1.61000, 93.
1.64000, 285.
1.67000, 1310.
1.70000, 3383.
1.73000, 5830.
1.76000, 5813.
1.79000, 3717.
1.82000, 1562.
1.85000, 582.
1.88000, 217.
1.91000, 107.
1.94000, 74.
1.97000, 74.
2.00000, 123.
2.03000, 87.
2.06000, 51.
2.09000, 45.
2.12000, 37.
2.15000, 39.
2.18000, 45.
2.21000, 108.
2.24000, 278.
2.27000, 518.
2.30000, 814.
2.33000, 774.
2.36000, 474.
2.39000, 220.
2.42000, 109.
2.45000, 95.
2.48000, 131.
2.51000, 159.
2.54000, 354.
2.57000, 843.
2.60000, 1572.
2.63000, 1816.
2.66000, 1525.
2.69000, 1037.
2.72000, 687.
2.75000, 434.
2.78000, 350.
2.81000, 384.
2.84000, 377.
2.87000, 306.
2.90000, 180.
2.93000, 114.
2.96000, 83.
2.99000, 57.
3.02000, 65.
3.05000, 42.
3.08000, 45.
3.11000, 25.
3.14000, 39.
3.17000, 38.
3.20000, 51.
3.23000, 161.
3.26000, 334.
3.29000, 501.
3.32000, 581.
3.35000, 507.
3.38000, 297.
3.41000, 123.
3.44000, 49.
3.47000, 57.
3.50000, 55.
3.53000, 78.
3.56000, 131.
3.59000, 242.
3.62000, 532.
3.65000, 963.
3.68000, 1311.
3.71000, 1326.
3.74000, 912.
3.77000, 461.
3.80000, 192.
3.83000, 73.
3.86000, 29.
3.89000, 46.
3.92000, 64.
3.95000, 112.
3.98000, 178.
4.01000, 225.
4.04000, 184.
4.07000, 155.
4.10000, 89.
4.13000, 55.
4.16000, 36.
4.19000, 26.
4.22000, 32.
4.25000, 31.
4.28000, 42.
4.31000, 44.
4.34000, 43.
4.37000, 71.
4.40000, 121.
4.43000, 236.
4.46000, 502.
4.49000, 701.
4.52000, 704.
4.55000, 606.
4.58000, 387.
4.61000, 188.
4.64000, 136.
4.67000, 100.
4.70000, 99.
4.73000, 77.
4.76000, 60.
4.79000, 89.
4.82000, 83.
4.85000, 120.
4.88000, 155.
4.91000, 185.
4.94000, 158.
4.97000, 167.
5.00000, 125.
5.03000, 83.
5.06000, 57.
5.09000, 46.
5.12000, 55.
5.15000, 58.
5.18000, 45.
5.21000, 61.
5.24000, 50.
5.27000, 65.
5.30000, 64.
5.33000, 67.
5.36000, 72.
5.39000, 98.
5.42000, 76.
5.45000, 83.
5.48000, 75.
5.51000, 53.
5.54000, 71.
5.57000, 64.
5.60000, 59.
5.63000, 49.
5.66000, 62.
5.69000, 50.
5.72000, 46.
5.75000, 52.
5.78000, 82.
5.81000, 104.
5.84000, 135.
5.87000, 167.
5.90000, 183.
5.93000, 171.
5.96000, 146.
5.99000, 105.
6.02000, 73.
6.05000, 84.
6.08000, 71.
6.11000, 83.
6.14000, 87.
6.17000, 100.
6.20000, 156.
6.23000, 446.
6.26000, 1189.
6.29000, 2956.
6.32000, 6144.
6.35000, 10390.
6.38000, 13601.
6.41000, 13927.
6.44000, 11264.
6.47000, 7366.
6.50000, 3734.
6.53000, 1638.
6.56000, 559.
6.59000, 211.
6.62000, 137.
6.65000, 96.
6.68000, 112.
6.71000, 100.
6.74000, 118.
6.77000, 109.
6.80000, 116.
6.83000, 115.
6.86000, 149.
6.89000, 218.
6.92000, 412.
6.95000, 736.
6.98000, 1264.
7.01000, 1872.
7.04000, 2349.
7.07000, 2260.
7.10000, 1785.
7.13000, 1179.
7.16000, 710.
7.19000, 326.
7.22000, 141.
7.25000, 91.
7.28000, 82.
7.31000, 68.
7.34000, 76.
7.37000, 90.
7.40000, 78.
7.43000, 74.
7.46000, 71.
7.49000, 92.
7.52000, 97.
7.55000, 73.
7.58000, 81.
7.61000, 68.
7.64000, 65.
7.67000, 90.
7.70000, 78.
7.73000, 91.
7.76000, 82.
7.79000, 98.
7.82000, 86.
7.85000, 81.
7.88000, 101.
7.91000, 102.
7.94000, 151.
7.97000, 190.
8.00000, 194.
8.03000, 267.
8.06000, 233.
8.09000, 202.
8.12000, 180.
8.15000, 187.
8.18000, 137.
8.21000, 127.
8.24000, 98.
8.27000, 115.
8.30000, 110.
8.33000, 107.
8.36000, 109.
8.39000, 94.
8.42000, 96.
8.45000, 106.
8.48000, 124.
8.51000, 160.
8.54000, 218.
8.57000, 236.
8.60000, 347.
8.63000, 337.
8.66000, 296.
8.69000, 283.
8.72000, 208.
8.75000, 157.
8.78000, 130.
8.81000, 139.
8.84000, 148.
8.87000, 137.
8.90000, 152.
8.93000, 120.
8.96000, 124.
8.99000, 130.
9.02000, 110.
9.05000, 108.
9.08000, 116.
9.11000, 114.
9.14000, 107.
9.17000, 128.
9.20000, 109.
9.23000, 116.
9.26000, 127.
9.29000, 133.
9.32000, 103.
9.35000, 126.
9.38000, 112.
9.41000, 130.
9.44000, 107.
9.47000, 136.
9.50000, 136.
9.53000, 155.
9.56000, 152.
9.59000, 158.
9.62000, 143.
9.65000, 138.
9.68000, 143.
9.71000, 130.
9.74000, 113.
9.77000, 98.
9.80000, 116.
9.83000, 116.
9.86000, 107.
9.89000, 124.
9.92000, 115.
9.95000, 112.
9.98000, 145.
10.01000, 129.
10.04000, 99.
10.07000, 122.
10.10000, 118.
10.13000, 115.
10.16000, 134.
10.19000, 120.
10.22000, 142.
10.25000, 139.
10.28000, 131.
10.31000, 111.
10.34000, 114.
10.37000, 133.
10.40000, 174.
10.43000, 159.
10.46000, 160.
10.49000, 173.
10.52000, 211.
10.55000, 190.
10.58000, 207.
10.61000, 170.
10.64000, 153.
10.67000, 153.
10.70000, 126.
10.73000, 134.
10.76000, 128.
10.79000, 137.
10.82000, 144.
10.85000, 139.
10.88000, 147.
10.91000, 129.
10.94000, 143.
10.97000, 155.
11.00000, 115.
11.03000, 125.
11.06000, 112.
11.09000, 138.
11.12000, 141.
11.15000, 129.
11.18000, 121.
11.21000, 132.
11.24000, 137.
11.27000, 129.
11.30000, 140.
11.33000, 138.
11.36000, 145.
11.39000, 147.
11.42000, 154.
11.45000, 129.
11.48000, 120.
11.51000, 132.
11.54000, 145.
11.57000, 135.
11.60000, 125.
11.63000, 147.
11.66000, 129.
11.69000, 166.
11.72000, 154.
11.75000, 190.
11.78000, 196.
11.81000, 249.
11.84000, 290.
11.87000, 294.
11.90000, 311.
11.93000, 300.
11.96000, 298.
11.99000, 257.
12.02000, 179.
12.05000, 159.
12.08000, 161.
12.11000, 141.
12.14000, 134.
12.17000, 110.
12.20000, 144.
12.23000, 147.
12.26000, 137.
12.29000, 127.
12.32000, 147.
12.35000, 129.
12.38000, 171.
12.41000, 150.
12.44000, 148.
12.47000, 154.
12.50000, 167.
12.53000, 187.
12.56000, 197.
12.59000, 196.
12.62000, 208.
12.65000, 201.
12.68000, 185.
12.71000, 181.
12.74000, 208.
12.77000, 164.
12.80000, 167.
12.83000, 190.
12.86000, 174.
12.89000, 174.
12.92000, 171.
12.95000, 132.
12.98000, 130.
13.01000, 162.
13.04000, 171.
13.07000, 144.
13.10000, 168.
13.13000, 155.
13.16000, 136.
13.19000, 178.
13.22000, 190.
13.25000, 199.
13.28000, 234.
13.31000, 217.
13.34000, 220.
13.37000, 197.
13.40000, 199.
13.43000, 213.
13.46000, 170.
13.49000, 156.
13.52000, 150.
13.55000, 153.
13.58000, 135.
13.61000, 147.
13.64000, 162.
13.67000, 148.
13.70000, 139.
13.73000, 140.
13.76000, 153.
13.79000, 142.
13.82000, 160.
13.85000, 142.
13.88000, 159.
13.91000, 174.
13.94000, 177.
13.97000, 193.
14.00000, 231.
14.03000, 270.
14.06000, 369.
14.09000, 372.
14.12000, 411.
14.15000, 366.
14.18000, 360.
14.21000, 319.
14.24000, 259.
14.27000, 218.
14.30000, 196.
14.33000, 150.
14.36000, 135.
14.39000, 137.
14.42000, 136.
14.45000, 138.
14.48000, 164.
14.51000, 158.
14.54000, 143.
14.57000, 168.
14.60000, 148.
14.63000, 162.
14.66000, 164.
14.69000, 163.
14.72000, 154.
14.75000, 152.
14.78000, 142.
14.81000, 155.
14.84000, 152.
14.87000, 158.
14.90000, 175.
14.93000, 181.
14.96000, 140.
14.99000, 157.
15.02000, 151.
15.05000, 155.
15.08000, 151.
15.11000, 158.
15.14000, 158.
15.17000, 137.
15.20000, 132.
15.23000, 145.
15.26000, 156.
15.29000, 150.
15.32000, 143.
15.35000, 130.
15.38000, 144.
15.41000, 146.
15.44000, 140.
15.47000, 140.
15.50000, 157.
15.53000, 158.
15.56000, 187.
15.59000, 189.
15.62000, 196.
15.65000, 209.
15.68000, 276.
15.71000, 275.
15.74000, 291.
15.77000, 328.
15.80000, 292.
15.83000, 253.
15.86000, 236.
15.89000, 191.
15.92000, 165.
15.95000, 156.
15.98000, 174.
16.01000, 140.
16.04000, 161.
16.07000, 142.
16.10000, 138.
16.13000, 142.
16.16000, 134.
16.19000, 174.
16.22000, 146.
16.25000, 146.
16.28000, 164.
16.31000, 127.
16.34000, 142.
16.37000, 145.
16.40000, 136.
16.43000, 134.
16.46000, 141.
16.49000, 133.
16.52000, 137.
16.55000, 145.
16.58000, 156.
16.61000, 163.
16.64000, 131.
16.67000, 159.
16.70000, 165.
16.73000, 138.
16.76000, 136.
16.79000, 154.
16.82000, 157.
16.85000, 124.
16.88000, 132.
16.91000, 149.
16.94000, 159.
16.97000, 121.
17.00000, 140.
17.03000, 123.
17.06000, 162.
17.09000, 141.
17.12000, 150.
17.15000, 135.
17.18000, 137.
17.21000, 144.
17.24000, 169.
17.27000, 167.
17.30000, 173.
17.33000, 129.
17.36000, 144.
17.39000, 152.
17.42000, 189.
17.45000, 155.
17.48000, 162.
17.51000, 197.
17.54000, 179.
17.57000, 161.
17.60000, 176.
17.63000, 189.
17.66000, 176.
17.69000, 194.
17.72000, 195.
17.75000, 195.
17.78000, 181.
17.81000, 186.
17.84000, 194.
17.87000, 237.
17.90000, 221.
17.93000, 183.
17.96000, 199.
17.99000, 210.
18.02000, 236.
18.05000, 215.
18.08000, 237.
18.11000, 232.
18.14000, 277.
18.17000, 239.
18.20000, 273.
18.23000, 292.
18.26000, 283.
18.29000, 326.
18.32000, 374.
18.35000, 362.
18.38000, 401.
18.41000, 459.
18.44000, 481.
18.47000, 501.
18.50000, 584.
18.53000, 635.
18.56000, 636.
18.59000, 709.
18.62000, 785.
18.65000, 818.
18.68000, 828.
18.71000, 837.
18.74000, 854.
18.77000, 907.
18.80000, 825.
18.83000, 869.
18.86000, 834.
18.89000, 867.
18.92000, 861.
18.95000, 756.
18.98000, 734.
19.01000, 686.
19.04000, 663.
19.07000, 589.
19.10000, 513.
19.13000, 473.
19.16000, 393.
19.19000, 413.
19.22000, 330.
19.25000, 374.
19.28000, 306.
19.31000, 294.
19.34000, 276.
19.37000, 252.
19.40000, 256.
19.43000, 268.
19.46000, 227.
19.49000, 229.
19.52000, 228.
19.55000, 177.
19.58000, 224.
19.61000, 186.
19.64000, 178.
19.67000, 198.
19.70000, 172.
19.73000, 172.
19.76000, 192.
19.79000, 157.
19.82000, 167.
19.85000, 161.
19.88000, 189.
19.91000, 242.
19.94000, 280.
19.97000, 323.
20.00000, 351.
20.03000, 422.
20.06000, 477.
20.09000, 549.
20.12000, 520.
20.15000, 567.
20.18000, 544.
20.21000, 540.
20.24000, 485.
20.27000, 366.
20.30000, 303.
20.33000, 246.
20.36000, 222.
20.39000, 180.
20.42000, 170.
20.45000, 124.
20.48000, 146.
20.51000, 152.
20.54000, 146.
20.57000, 159.
20.60000, 179.
20.63000, 180.
20.66000, 159.
20.69000, 189.
20.72000, 221.
20.75000, 201.
20.78000, 213.
20.81000, 237.
20.84000, 220.
20.87000, 249.
20.90000, 245.
20.93000, 234.
20.96000, 253.
20.99000, 256.
21.02000, 262.
21.05000, 250.
21.08000, 210.
21.11000, 246.
21.14000, 223.
21.17000, 223.
21.20000, 236.
21.23000, 222.
21.26000, 214.
21.29000, 188.
21.32000, 200.
21.35000, 172.
21.38000, 175.
21.41000, 154.
21.44000, 161.
21.47000, 145.
21.50000, 158.
21.53000, 154.
21.56000, 129.
21.59000, 122.
21.62000, 117.
21.65000, 139.
21.68000, 122.
21.71000, 117.
21.74000, 135.
21.77000, 95.
21.80000, 107.
21.83000, 108.
21.86000, 77.
21.89000, 92.
21.92000, 110.
21.95000, 98.
21.98000, 97.
22.01000, 86.
22.04000, 107.
22.07000, 86.
22.10000, 78.
22.13000, 102.
22.16000, 90.
22.19000, 91.
22.22000, 65.
22.25000, 95.
22.28000, 91.
22.31000, 70.
22.34000, 96.
22.37000, 83.
22.40000, 89.
22.43000, 90.
22.46000, 93.
22.49000, 86.
22.52000, 100.
22.55000, 107.
22.58000, 131.
22.61000, 153.
22.64000, 133.
22.67000, 156.
22.70000, 137.
22.73000, 122.
22.76000, 120.
22.79000, 113.
22.82000, 86.
22.85000, 89.
22.88000, 82.
22.91000, 62.
22.94000, 71.
22.97000, 78.
23.00000, 77.
23.03000, 79.
23.06000, 77.
23.09000, 90.
23.12000, 97.
23.15000, 72.
23.18000, 73.
23.21000, 86.
23.24000, 76.
23.27000, 71.
23.30000, 78.
23.33000, 79.
23.36000, 66.
23.39000, 64.
23.42000, 67.
23.45000, 72.
23.48000, 60.
23.51000, 64.
23.54000, 62.
23.57000, 72.
23.60000, 67.
23.63000, 63.
23.66000, 80.
23.69000, 67.
23.72000, 60.
23.75000, 66.
23.78000, 57.
23.81000, 67.
23.84000, 69.
23.87000, 64.
23.90000, 61.
23.93000, 54.
23.96000, 66.
23.99000, 61.
24.02000, 69.
24.05000, 70.
24.08000, 62.
24.11000, 76.
24.14000, 58.
24.17000, 69.
24.20000, 63.
24.23000, 54.
24.26000, 64.
24.29000, 66.
24.32000, 69.
24.35000, 56.
24.38000, 52.
24.41000, 57.
24.44000, 50.
24.47000, 64.
24.50000, 74.
24.53000, 76.
24.56000, 60.
24.59000, 69.
24.62000, 66.
24.65000, 54.
24.68000, 63.
24.71000, 49.
24.74000, 66.
24.77000, 65.
24.80000, 53.
24.83000, 69.
24.86000, 56.
24.89000, 75.
24.92000, 69.
24.95000, 60.
24.98000, 67.
25.01000, 60.
25.04000, 67.
25.07000, 68.
25.10000, 59.
25.13000, 59.
25.16000, 85.
25.19000, 68.
25.22000, 47.
25.25000, 66.
25.28000, 65.
25.31000, 65.
25.34000, 68.
25.37000, 71.
25.40000, 64.
25.43000, 60.
25.46000, 64.
25.49000, 52.
25.52000, 67.
25.55000, 64.
25.58000, 64.
25.61000, 75.
25.64000, 62.
25.67000, 61.
25.70000, 57.
25.73000, 50.
25.76000, 51.
25.79000, 58.
25.82000, 54.
25.85000, 68.
25.88000, 47.
25.91000, 61.
25.94000, 59.
25.97000, 52.
26.00000, 58.
26.03000, 47.
26.06000, 49.
26.09000, 65.
26.12000, 50.
26.15000, 52.
26.18000, 64.
26.21000, 53.
26.24000, 43.
26.27000, 49.
26.30000, 61.
26.33000, 50.
26.36000, 59.
26.39000, 48.
26.42000, 63.
26.45000, 44.
26.48000, 54.
26.51000, 61.
26.54000, 40.
26.57000, 72.
26.60000, 45.
26.63000, 63.
26.66000, 44.
26.69000, 50.
26.72000, 62.
26.75000, 41.
26.78000, 51.
26.81000, 56.
26.84000, 61.
26.87000, 54.
26.90000, 47.
26.93000, 52.
26.96000, 50.
26.99000, 40.
27.02000, 47.
27.05000, 51.
27.08000, 47.
27.11000, 59.
27.14000, 59.
27.17000, 51.
27.20000, 45.
27.23000, 48.
27.26000, 53.
27.29000, 54.
27.32000, 41.
27.35000, 63.
27.38000, 57.
27.41000, 42.
27.44000, 45.
27.47000, 49.
27.50000, 32.
27.53000, 45.
27.56000, 56.
27.59000, 63.
27.62000, 56.
27.65000, 38.
27.68000, 50.
27.71000, 41.
27.74000, 53.
27.77000, 56.
27.80000, 38.
27.83000, 41.
27.86000, 44.
27.89000, 42.
27.92000, 52.
27.95000, 47.
27.98000, 50.
28.01000, 41.
28.04000, 38.
28.07000, 39.
28.10000, 54.
28.13000, 59.
28.16000, 58.
28.19000, 48.
28.22000, 40.
28.25000, 53.
28.28000, 41.
28.31000, 50.
28.34000, 41.
28.37000, 36.
28.40000, 43.
28.43000, 47.
28.46000, 41.
28.49000, 43.
28.52000, 43.
28.55000, 52.
28.58000, 51.
28.61000, 47.
28.64000, 49.
28.67000, 46.
28.70000, 37.
28.73000, 56.
28.76000, 38.
28.79000, 44.
28.82000, 50.
28.85000, 39.
28.88000, 52.
28.91000, 43.
28.94000, 39.
28.97000, 40.
29.00000, 37.
29.03000, 46.
29.06000, 45.
29.09000, 42.
29.12000, 35.
29.15000, 38.
29.18000, 36.
29.21000, 50.
29.24000, 41.
29.27000, 40.
29.30000, 37.
29.33000, 52.
29.36000, 32.
29.39000, 37.
29.42000, 45.
29.45000, 23.
29.48000, 40.
29.51000, 54.
29.54000, 42.
29.57000, 31.
29.60000, 39.
29.63000, 42.
29.66000, 41.
29.69000, 33.
29.72000, 38.
29.75000, 37.
29.78000, 48.
29.81000, 40.
29.84000, 41.
29.87000, 31.
29.90000, 40.
29.93000, 30.
29.96000, 29.
29.99000, 32.
30.02000, 33.
30.05000, 36.
30.08000, 37.
30.11000, 30.
30.14000, 31.
30.17000, 35.
30.20000, 36.
30.23000, 36.
30.26000, 39.
30.29000, 29.
30.32000, 38.
30.35000, 42.
30.38000, 47.
30.41000, 39.
30.44000, 40.
30.47000, 36.
30.50000, 34.
30.53000, 38.
30.56000, 29.
30.59000, 21.
30.62000, 28.
30.65000, 38.
30.68000, 28.
30.71000, 35.
30.74000, 39.
30.77000, 31.
30.80000, 31.
30.83000, 26.
30.86000, 31.
30.89000, 23.
30.92000, 16.
30.95000, 25.
30.98000, 25.
31.01000, 18.
31.04000, 33.
31.07000, 28.
31.10000, 36.
31.13000, 30.
31.16000, 28.
31.19000, 26.
31.22000, 33.
31.25000, 34.
31.28000, 26.
31.31000, 35.
31.34000, 23.
31.37000, 35.
31.40000, 22.
31.43000, 30.
31.46000, 32.
31.49000, 37.
31.52000, 27.
31.55000, 23.
31.58000, 34.
31.61000, 35.
31.64000, 30.
31.67000, 39.
31.70000, 37.
31.73000, 23.
31.76000, 38.
31.79000, 52.
31.82000, 36.
31.85000, 37.
31.88000, 30.
31.91000, 30.
31.94000, 28.
31.97000, 38.
32.00000, 40.
32.03000, 42.
32.06000, 34.
32.09000, 40.
32.12000, 37.
32.15000, 45.
32.18000, 38.
32.21000, 32.
32.24000, 37.
32.27000, 29.
32.30000, 29.
32.33000, 17.
32.36000, 19.
32.39000, 25.
32.42000, 29.
32.45000, 27.
32.48000, 18.
32.51000, 25.
32.54000, 27.
32.57000, 26.
32.60000, 29.
32.63000, 24.
32.66000, 19.
32.69000, 29.
32.72000, 17.
32.75000, 22.
32.78000, 26.
32.81000, 23.
32.84000, 29.
32.87000, 26.
32.90000, 16.
32.93000, 20.
32.96000, 13.
32.99000, 23.
33.02000, 24.
33.05000, 17.
33.08000, 19.
33.11000, 26.
33.14000, 21.
33.17000, 21.
33.20000, 22.
33.23000, 23.
33.26000, 19.
33.29000, 24.
33.32000, 21.
33.35000, 18.
33.38000, 23.
33.41000, 22.
33.44000, 17.
33.47000, 21.
33.50000, 15.
33.53000, 24.
33.56000, 25.
33.59000, 22.
33.62000, 24.
33.65000, 22.
33.68000, 19.
33.71000, 32.
33.74000, 18.
33.77000, 21.
33.80000, 21.
33.83000, 21.
33.86000, 14.
33.89000, 18.
33.92000, 13.
33.95000, 17.
33.98000, 19.
34.01000, 20.
34.04000, 15.
34.07000, 26.
34.10000, 21.
34.13000, 19.
34.16000, 23.
34.19000, 19.
34.22000, 15.
34.25000, 16.
34.28000, 20.
34.31000, 24.
34.34000, 24.
34.37000, 14.
34.40000, 20.
34.43000, 16.
34.46000, 24.
34.49000, 14.
34.52000, 22.
34.55000, 19.
34.58000, 17.
34.61000, 24.
34.64000, 15.
34.67000, 19.
34.70000, 20.
34.73000, 14.
34.76000, 14.
34.79000, 23.
34.82000, 20.
34.85000, 13.
34.88000, 16.
34.91000, 22.
34.94000, 15.
34.97000, 20.
35.00000, 18.
35.03000, 9.
35.06000, 16.
35.09000, 19.
35.12000, 19.
35.15000, 16.
35.18000, 20.
35.21000, 19.
35.24000, 19.
35.27000, 14.
35.30000, 21.
35.33000, 17.
35.36000, 17.
35.39000, 10.
35.42000, 13.
35.45000, 25.
35.48000, 8.
35.51000, 13.
35.54000, 15.
35.57000, 18.
35.60000, 13.
35.63000, 10.
35.66000, 13.
35.69000, 17.
35.72000, 15.
35.75000, 11.
35.78000, 17.
35.81000, 11.
35.84000, 10.
35.87000, 15.
35.90000, 15.
35.93000, 11.
35.96000, 16.
35.99000, 13.
36.02000, 17.
36.05000, 11.
36.08000, 11.
36.11000, 10.
36.14000, 7.
36.17000, 10.
36.20000, 12.
36.23000, 17.
36.26000, 16.
36.29000, 23.
36.32000, 9.
36.35000, 12.
36.38000, 9.
36.41000, 19.
36.44000, 13.
36.47000, 13.
36.50000, 12.
36.53000, 10.
36.56000, 10.
36.59000, 16.
36.62000, 20.
36.65000, 14.
36.68000, 18.
36.71000, 9.
36.74000, 16.
36.77000, 13.
36.80000, 12.
36.83000, 15.
36.86000, 15.
36.89000, 12.
36.92000, 11.
36.95000, 13.
36.98000, 9.
37.01000, 13.
37.04000, 12.
37.07000, 8.
37.10000, 14.
37.13000, 8.
37.16000, 12.
37.19000, 10.
37.22000, 12.
37.25000, 10.
37.28000, 12.
37.31000, 11.
37.34000, 15.
37.37000, 10.
37.40000, 10.
37.43000, 12.
37.46000, 15.
37.49000, 8.
37.52000, 8.
37.55000, 15.
37.58000, 5.
37.61000, 10.
37.64000, 13.
37.67000, 11.
37.70000, 6.
37.73000, 14.
37.76000, 9.
37.79000, 7.
37.82000, 7.
37.85000, 9.
37.88000, 9.
37.91000, 4.
37.94000, 8.
37.97000, 7.
38.00000, 9.
38.03000, 10.
38.06000, 9.
38.09000, 16.
38.12000, 12.
38.15000, 7.
38.18000, 4.
38.21000, 6.
38.24000, 8.
38.27000, 5.
38.30000, 13.
38.33000, 11.
38.36000, 5.
38.39000, 7.
38.42000, 13.
38.45000, 7.
38.48000, 5.
38.51000, 5.
38.54000, 8.
38.57000, 3.
38.60000, 5.
38.63000, 5.
38.66000, 6.
38.69000, 9.
38.72000, 9.
38.75000, 5.
38.78000, 9.
38.81000, 8.
38.84000, 7.
38.87000, 9.
38.90000, 4.
38.93000, 10.
38.96000, 9.
38.99000, 4.
39.02000, 6.
39.05000, 4.
39.08000, 9.
39.11000, 9.
39.14000, 3.
39.17000, 7.
39.20000, 5.
39.23000, 3.
39.26000, 6.
39.29000, 5.
39.32000, 3.
39.35000, 7.
39.38000, 3.
39.41000, 6.
39.44000, 4.
39.47000, 7.
39.50000, 8.
39.53000, 4.
39.56000, 7.
39.59000, 6.
39.62000, 3.
39.65000, 10.
39.68000, 3.
39.71000, 7.
39.74000, 5.
39.77000, 3.
39.80000, 7.
39.83000, 5.
39.86000, 8.
39.89000, 6.
39.92000, 6.
39.95000, 9.
39.98000, 4.
40.01000, 6.
40.04000, 5.
40.07000, 7.
40.10000, 5.
40.13000, 7.
40.16000, 3.
40.19000, 2.
40.22000, 8.
40.25000, 9.
40.28000, 4.
40.31000, 8.
40.34000, 8.
40.37000, 2.
40.40000, 4.
40.43000, 6.
40.46000, 3.
40.49000, 4.
40.52000, 4.
40.55000, 0.
#ENDOFDATA   :