File: sample_data/data/Spectrum value from standard/PACS 2/Spectrum 15.txt
#FORMAT      : EMSA/MAS Spectral Data File
#VERSION     : 1.0
#TITLE       : Spectrum 15
#DATE        : 21-AUG-2025
#TIME        : 15:19
#OWNER       : XGT7200
#NPOINTS     : 4096.
#NCOLUMNS    : 1.
#XUNITS      : keV
#YUNITS      : counts
#DATATYPE    : XY
#XPERCHAN    : 0.0100000
#OFFSET      : -0.400000
#SIGNALTYPE  : EDS
#CHOFFSET    : 40.0000
#LIVETIME    : 30
#REALTIME    : 39.5624
#BEAMKV      : 50.0000
#PROBECUR    : 693000.
#MAGCAM      : 100.000
#XTILTSTGE   : 0.0
#AZIMANGLE   : 0.0
#ELEVANGLE   : 45.0
#XPOSITION mm: 0.0000
#YPOSITION mm: 0.0000
#ZPOSITION mm: 0.0000
##OXINSTPT   : 4
##OXINSTSTROB: 72.25
#SPECTRUM    : Spectral Data Starts Here
-0.40000, 0.
-0.37000, 0.
-0.34000, 0.
-0.31000, 0.
-0.28000, 0.
-0.25000, 0.
-0.22000, 0.
-0.19000, 0.
-0.16000, 0.
-0.13000, 0.
-0.10000, 0.
-0.07000, 0.
-0.04000, 0.
-0.01000, 0.
0.02000, 0.
0.05000, 0.
0.08000, 0.
0.11000, 0.
0.14000, 0.
0.17000, 0.
0.20000, 0.
0.23000, 0.
0.26000, 0.
0.29000, 0.
0.32000, 0.
0.35000, 1.
0.38000, 12.
0.41000, 25.
0.44000, 54.
0.47000, 47.
0.50000, 44.
0.53000, 49.
0.56000, 45.
0.59000, 51.
0.62000, 62.
0.65000, 42.
0.68000, 31.
0.71000, 47.
0.74000, 41.
0.77000, 34.
0.80000, 32.
0.83000, 51.
0.86000, 71.
0.89000, 54.
0.92000, 65.
0.95000, 67.
0.98000, 57.
1.01000, 43.
1.04000, 76.
1.07000, 59.
1.10000, 60.
1.13000, 39.
1.16000, 47.
1.19000, 63.
1.22000, 52.
1.25000, 72.
1.28000, 87.
1.31000, 55.
1.34000, 46.
1.37000, 35.
1.40000, 94.
1.43000, 235.
1.46000, 464.
1.49000, 657.
1.52000, 581.
1.55000, 303.
1.58000, 134.
1.61000, 109.
1.64000, 303.
1.67000, 1344.
1.70000, 3349.
1.73000, 5781.
1.76000, 5974.
1.79000, 3643.
1.82000, 1554.
1.85000, 546.
1.88000, 230.
1.91000, 120.
1.94000, 71.
1.97000, 60.
2.00000, 67.
2.03000, 75.
2.06000, 44.
2.09000, 38.
2.12000, 33.
2.15000, 31.
2.18000, 73.
2.21000, 101.
2.24000, 263.
2.27000, 557.
2.30000, 800.
2.33000, 776.
2.36000, 475.
2.39000, 225.
2.42000, 128.
2.45000, 83.
2.48000, 117.
2.51000, 196.
2.54000, 382.
2.57000, 856.
2.60000, 1437.
2.63000, 1880.
2.66000, 1572.
2.69000, 1085.
2.72000, 725.
2.75000, 427.
2.78000, 353.
2.81000, 410.
2.84000, 367.
2.87000, 270.
2.90000, 169.
2.93000, 115.
2.96000, 84.
2.99000, 71.
3.02000, 40.
3.05000, 41.
3.08000, 40.
3.11000, 32.
3.14000, 31.
3.17000, 36.
3.20000, 69.
3.23000, 157.
3.26000, 296.
3.29000, 502.
3.32000, 601.
3.35000, 460.
3.38000, 286.
3.41000, 99.
3.44000, 57.
3.47000, 37.
3.50000, 57.
3.53000, 103.
3.56000, 130.
3.59000, 243.
3.62000, 502.
3.65000, 813.
3.68000, 1201.
3.71000, 1131.
3.74000, 837.
3.77000, 448.
3.80000, 158.
3.83000, 71.
3.86000, 34.
3.89000, 38.
3.92000, 60.
3.95000, 104.
3.98000, 164.
4.01000, 219.
4.04000, 190.
4.07000, 120.
4.10000, 77.
4.13000, 45.
4.16000, 28.
4.19000, 30.
4.22000, 39.
4.25000, 30.
4.28000, 34.
4.31000, 43.
4.34000, 46.
4.37000, 63.
4.40000, 130.
4.43000, 233.
4.46000, 395.
4.49000, 503.
4.52000, 576.
4.55000, 471.
4.58000, 272.
4.61000, 160.
4.64000, 121.
4.67000, 90.
4.70000, 78.
4.73000, 66.
4.76000, 69.
4.79000, 67.
4.82000, 74.
4.85000, 104.
4.88000, 123.
4.91000, 143.
4.94000, 145.
4.97000, 116.
5.00000, 91.
5.03000, 80.
5.06000, 57.
5.09000, 51.
5.12000, 54.
5.15000, 49.
5.18000, 57.
5.21000, 61.
5.24000, 57.
5.27000, 57.
5.30000, 66.
5.33000, 57.
5.36000, 56.
5.39000, 75.
5.42000, 83.
5.45000, 73.
5.48000, 65.
5.51000, 64.
5.54000, 63.
5.57000, 76.
5.60000, 52.
5.63000, 46.
5.66000, 58.
5.69000, 43.
5.72000, 52.
5.75000, 62.
5.78000, 87.
5.81000, 87.
5.84000, 140.
5.87000, 167.
5.90000, 146.
5.93000, 176.
5.96000, 108.
5.99000, 87.
6.02000, 88.
6.05000, 99.
6.08000, 76.
6.11000, 76.
6.14000, 98.
6.17000, 106.
6.20000, 193.
6.23000, 467.
6.26000, 1183.
6.29000, 2946.
6.32000, 6141.
6.35000, 10243.
6.38000, 13236.
6.41000, 13598.
6.44000, 11469.
6.47000, 7214.
6.50000, 3717.
6.53000, 1551.
6.56000, 635.
6.59000, 206.
6.62000, 128.
6.65000, 77.
6.68000, 104.
6.71000, 102.
6.74000, 101.
6.77000, 104.
6.80000, 118.
6.83000, 124.
6.86000, 143.
6.89000, 252.
6.92000, 405.
6.95000, 736.
6.98000, 1253.
7.01000, 1889.
7.04000, 2141.
7.07000, 2150.
7.10000, 1772.
7.13000, 1179.
7.16000, 661.
7.19000, 289.
7.22000, 163.
7.25000, 123.
7.28000, 71.
7.31000, 56.
7.34000, 72.
7.37000, 76.
7.40000, 88.
7.43000, 86.
7.46000, 78.
7.49000, 101.
7.52000, 77.
7.55000, 77.
7.58000, 83.
7.61000, 66.
7.64000, 74.
7.67000, 75.
7.70000, 80.
7.73000, 67.
7.76000, 87.
7.79000, 72.
7.82000, 97.
7.85000, 122.
7.88000, 102.
7.91000, 126.
7.94000, 150.
7.97000, 201.
8.00000, 253.
8.03000, 254.
8.06000, 264.
8.09000, 224.
8.12000, 211.
8.15000, 141.
8.18000, 143.
8.21000, 138.
8.24000, 121.
8.27000, 102.
8.30000, 94.
8.33000, 113.
8.36000, 102.
8.39000, 111.
8.42000, 109.
8.45000, 123.
8.48000, 134.
8.51000, 128.
8.54000, 179.
8.57000, 253.
8.60000, 289.
8.63000, 304.
8.66000, 289.
8.69000, 250.
8.72000, 197.
8.75000, 148.
8.78000, 142.
8.81000, 122.
8.84000, 130.
8.87000, 143.
8.90000, 130.
8.93000, 147.
8.96000, 137.
8.99000, 104.
9.02000, 139.
9.05000, 125.
9.08000, 128.
9.11000, 125.
9.14000, 113.
9.17000, 109.
9.20000, 141.
9.23000, 116.
9.26000, 138.
9.29000, 125.
9.32000, 138.
9.35000, 114.
9.38000, 136.
9.41000, 114.
9.44000, 133.
9.47000, 145.
9.50000, 137.
9.53000, 150.
9.56000, 157.
9.59000, 161.
9.62000, 151.
9.65000, 150.
9.68000, 144.
9.71000, 123.
9.74000, 107.
9.77000, 122.
9.80000, 108.
9.83000, 109.
9.86000, 140.
9.89000, 119.
9.92000, 122.
9.95000, 105.
9.98000, 118.
10.01000, 146.
10.04000, 127.
10.07000, 137.
10.10000, 143.
10.13000, 133.
10.16000, 115.
10.19000, 131.
10.22000, 128.
10.25000, 126.
10.28000, 148.
10.31000, 116.
10.34000, 127.
10.37000, 130.
10.40000, 151.
10.43000, 138.
10.46000, 159.
10.49000, 209.
10.52000, 210.
10.55000, 211.
10.58000, 197.
10.61000, 187.
10.64000, 174.
10.67000, 135.
10.70000, 137.
10.73000, 160.
10.76000, 133.
10.79000, 145.
10.82000, 145.
10.85000, 132.
10.88000, 154.
10.91000, 148.
10.94000, 131.
10.97000, 150.
11.00000, 141.
11.03000, 133.
11.06000, 152.
11.09000, 121.
11.12000, 128.
11.15000, 147.
11.18000, 129.
11.21000, 134.
11.24000, 122.
11.27000, 138.
11.30000, 164.
11.33000, 133.
11.36000, 147.
11.39000, 157.
11.42000, 136.
11.45000, 144.
11.48000, 145.
11.51000, 140.
11.54000, 137.
11.57000, 149.
11.60000, 160.
11.63000, 161.
11.66000, 131.
11.69000, 156.
11.72000, 161.
11.75000, 178.
11.78000, 201.
11.81000, 273.
11.84000, 271.
11.87000, 318.
11.90000, 344.
11.93000, 316.
11.96000, 270.
11.99000, 254.
12.02000, 205.
12.05000, 214.
12.08000, 180.
12.11000, 159.
12.14000, 139.
12.17000, 144.
12.20000, 143.
12.23000, 160.
12.26000, 146.
12.29000, 165.
12.32000, 145.
12.35000, 133.
12.38000, 149.
12.41000, 143.
12.44000, 150.
12.47000, 171.
12.50000, 190.
12.53000, 159.
12.56000, 230.
12.59000, 211.
12.62000, 212.
12.65000, 222.
12.68000, 178.
12.71000, 179.
12.74000, 190.
12.77000, 191.
12.80000, 200.
12.83000, 187.
12.86000, 158.
12.89000, 165.
12.92000, 170.
12.95000, 161.
12.98000, 208.
13.01000, 156.
13.04000, 164.
13.07000, 174.
13.10000, 157.
13.13000, 155.
13.16000, 170.
13.19000, 182.
13.22000, 187.
13.25000, 188.
13.28000, 212.
13.31000, 209.
13.34000, 240.
13.37000, 248.
13.40000, 216.
13.43000, 231.
13.46000, 192.
13.49000, 162.
13.52000, 186.
13.55000, 147.
13.58000, 174.
13.61000, 163.
13.64000, 155.
13.67000, 153.
13.70000, 130.
13.73000, 142.
13.76000, 154.
13.79000, 149.
13.82000, 167.
13.85000, 136.
13.88000, 171.
13.91000, 164.
13.94000, 184.
13.97000, 218.
14.00000, 266.
14.03000, 291.
14.06000, 355.
14.09000, 379.
14.12000, 413.
14.15000, 411.
14.18000, 396.
14.21000, 319.
14.24000, 264.
14.27000, 226.
14.30000, 188.
14.33000, 162.
14.36000, 150.
14.39000, 163.
14.42000, 154.
14.45000, 149.
14.48000, 137.
14.51000, 140.
14.54000, 145.
14.57000, 137.
14.60000, 164.
14.63000, 167.
14.66000, 150.
14.69000, 127.
14.72000, 150.
14.75000, 158.
14.78000, 191.
14.81000, 156.
14.84000, 183.
14.87000, 153.
14.90000, 176.
14.93000, 178.
14.96000, 178.
14.99000, 177.
15.02000, 166.
15.05000, 169.
15.08000, 167.
15.11000, 158.
15.14000, 143.
15.17000, 152.
15.20000, 145.
15.23000, 153.
15.26000, 167.
15.29000, 133.
15.32000, 180.
15.35000, 151.
15.38000, 156.
15.41000, 144.
15.44000, 158.
15.47000, 150.
15.50000, 148.
15.53000, 143.
15.56000, 153.
15.59000, 194.
15.62000, 195.
15.65000, 224.
15.68000, 271.
15.71000, 315.
15.74000, 311.
15.77000, 294.
15.80000, 274.
15.83000, 226.
15.86000, 239.
15.89000, 198.
15.92000, 186.
15.95000, 178.
15.98000, 144.
16.01000, 150.
16.04000, 147.
16.07000, 155.
16.10000, 144.
16.13000, 151.
16.16000, 151.
16.19000, 139.
16.22000, 165.
16.25000, 155.
16.28000, 137.
16.31000, 128.
16.34000, 162.
16.37000, 147.
16.40000, 178.
16.43000, 163.
16.46000, 154.
16.49000, 152.
16.52000, 158.
16.55000, 152.
16.58000, 162.
16.61000, 154.
16.64000, 147.
16.67000, 149.
16.70000, 153.
16.73000, 159.
16.76000, 151.
16.79000, 141.
16.82000, 159.
16.85000, 134.
16.88000, 139.
16.91000, 137.
16.94000, 161.
16.97000, 146.
17.00000, 144.
17.03000, 135.
17.06000, 151.
17.09000, 156.
17.12000, 133.
17.15000, 155.
17.18000, 168.
17.21000, 165.
17.24000, 185.
17.27000, 171.
17.30000, 152.
17.33000, 173.
17.36000, 167.
17.39000, 162.
17.42000, 171.
17.45000, 186.
17.48000, 173.
17.51000, 189.
17.54000, 170.
17.57000, 173.
17.60000, 208.
17.63000, 197.
17.66000, 199.
17.69000, 215.
17.72000, 244.
17.75000, 161.
17.78000, 198.
17.81000, 220.
17.84000, 245.
17.87000, 197.
17.90000, 206.
17.93000, 203.
17.96000, 218.
17.99000, 212.
18.02000, 251.
18.05000, 236.
18.08000, 238.
18.11000, 230.
18.14000, 235.
18.17000, 259.
18.20000, 295.
18.23000, 277.
18.26000, 311.
18.29000, 347.
18.32000, 289.
18.35000, 359.
18.38000, 394.
18.41000, 466.
18.44000, 520.
18.47000, 546.
18.50000, 505.
18.53000, 627.
18.56000, 656.
18.59000, 774.
18.62000, 767.
18.65000, 833.
18.68000, 868.
18.71000, 924.
18.74000, 937.
18.77000, 875.
18.80000, 938.
18.83000, 899.
18.86000, 876.
18.89000, 904.
18.92000, 862.
18.95000, 797.
18.98000, 721.
19.01000, 702.
19.04000, 658.
19.07000, 587.
19.10000, 607.
19.13000, 490.
19.16000, 421.
19.19000, 409.
19.22000, 391.
19.25000, 365.
19.28000, 335.
19.31000, 319.
19.34000, 295.
19.37000, 272.
19.40000, 286.
19.43000, 275.
19.46000, 254.
19.49000, 217.
19.52000, 203.
19.55000, 201.
19.58000, 192.
19.61000, 173.
19.64000, 198.
19.67000, 180.
19.70000, 187.
19.73000, 157.
19.76000, 144.
19.79000, 179.
19.82000, 166.
19.85000, 151.
19.88000, 207.
19.91000, 227.
19.94000, 265.
19.97000, 327.
20.00000, 365.
20.03000, 400.
20.06000, 455.
20.09000, 497.
20.12000, 547.
20.15000, 581.
20.18000, 534.
20.21000, 491.
20.24000, 448.
20.27000, 362.
20.30000, 346.
20.33000, 259.
20.36000, 201.
20.39000, 187.
20.42000, 163.
20.45000, 155.
20.48000, 168.
20.51000, 169.
20.54000, 176.
20.57000, 156.
20.60000, 173.
20.63000, 188.
20.66000, 193.
20.69000, 190.
20.72000, 201.
20.75000, 234.
20.78000, 213.
20.81000, 226.
20.84000, 205.
20.87000, 235.
20.90000, 226.
20.93000, 241.
20.96000, 257.
20.99000, 246.
21.02000, 272.
21.05000, 229.
21.08000, 210.
21.11000, 259.
21.14000, 253.
21.17000, 262.
21.20000, 195.
21.23000, 195.
21.26000, 205.
21.29000, 182.
21.32000, 201.
21.35000, 184.
21.38000, 155.
21.41000, 169.
21.44000, 156.
21.47000, 158.
21.50000, 138.
21.53000, 136.
21.56000, 144.
21.59000, 163.
21.62000, 124.
21.65000, 137.
21.68000, 116.
21.71000, 126.
21.74000, 99.
21.77000, 109.
21.80000, 107.
21.83000, 120.
21.86000, 108.
21.89000, 122.
21.92000, 92.
21.95000, 112.
21.98000, 98.
22.01000, 94.
22.04000, 94.
22.07000, 103.
22.10000, 96.
22.13000, 83.
22.16000, 90.
22.19000, 93.
22.22000, 93.
22.25000, 76.
22.28000, 92.
22.31000, 81.
22.34000, 96.
22.37000, 70.
22.40000, 72.
22.43000, 101.
22.46000, 93.
22.49000, 94.
22.52000, 110.
22.55000, 111.
22.58000, 120.
22.61000, 142.
22.64000, 142.
22.67000, 161.
22.70000, 131.
22.73000, 126.
22.76000, 117.
22.79000, 117.
22.82000, 116.
22.85000, 95.
22.88000, 72.
22.91000, 84.
22.94000, 77.
22.97000, 79.
23.00000, 78.
23.03000, 79.
23.06000, 95.
23.09000, 84.
23.12000, 74.
23.15000, 97.
23.18000, 73.
23.21000, 86.
23.24000, 69.
23.27000, 95.
23.30000, 84.
23.33000, 70.
23.36000, 69.
23.39000, 79.
23.42000, 68.
23.45000, 67.
23.48000, 67.
23.51000, 65.
23.54000, 70.
23.57000, 47.
23.60000, 61.
23.63000, 73.
23.66000, 55.
23.69000, 60.
23.72000, 50.
23.75000, 68.
23.78000, 67.
23.81000, 54.
23.84000, 77.
23.87000, 78.
23.90000, 88.
23.93000, 68.
23.96000, 62.
23.99000, 63.
24.02000, 59.
24.05000, 57.
24.08000, 65.
24.11000, 72.
24.14000, 70.
24.17000, 74.
24.20000, 74.
24.23000, 65.
24.26000, 74.
24.29000, 56.
24.32000, 52.
24.35000, 56.
24.38000, 71.
24.41000, 59.
24.44000, 64.
24.47000, 59.
24.50000, 55.
24.53000, 67.
24.56000, 67.
24.59000, 55.
24.62000, 46.
24.65000, 55.
24.68000, 64.
24.71000, 66.
24.74000, 68.
24.77000, 60.
24.80000, 70.
24.83000, 68.
24.86000, 52.
24.89000, 64.
24.92000, 67.
24.95000, 66.
24.98000, 63.
25.01000, 65.
25.04000, 65.
25.07000, 52.
25.10000, 87.
25.13000, 84.
25.16000, 70.
25.19000, 77.
25.22000, 72.
25.25000, 68.
25.28000, 77.
25.31000, 66.
25.34000, 51.
25.37000, 51.
25.40000, 61.
25.43000, 71.
25.46000, 61.
25.49000, 61.
25.52000, 68.
25.55000, 65.
25.58000, 57.
25.61000, 62.
25.64000, 52.
25.67000, 47.
25.70000, 37.
25.73000, 53.
25.76000, 65.
25.79000, 50.
25.82000, 54.
25.85000, 53.
25.88000, 50.
25.91000, 51.
25.94000, 67.
25.97000, 55.
26.00000, 56.
26.03000, 53.
26.06000, 60.
26.09000, 52.
26.12000, 52.
26.15000, 74.
26.18000, 60.
26.21000, 60.
26.24000, 59.
26.27000, 66.
26.30000, 61.
26.33000, 59.
26.36000, 61.
26.39000, 77.
26.42000, 57.
26.45000, 65.
26.48000, 65.
26.51000, 56.
26.54000, 47.
26.57000, 53.
26.60000, 40.
26.63000, 55.
26.66000, 59.
26.69000, 49.
26.72000, 63.
26.75000, 51.
26.78000, 45.
26.81000, 55.
26.84000, 48.
26.87000, 50.
26.90000, 43.
26.93000, 50.
26.96000, 46.
26.99000, 51.
27.02000, 47.
27.05000, 63.
27.08000, 43.
27.11000, 51.
27.14000, 58.
27.17000, 46.
27.20000, 53.
27.23000, 41.
27.26000, 57.
27.29000, 43.
27.32000, 43.
27.35000, 52.
27.38000, 50.
27.41000, 52.
27.44000, 45.
27.47000, 44.
27.50000, 47.
27.53000, 42.
27.56000, 41.
27.59000, 52.
27.62000, 38.
27.65000, 39.
27.68000, 40.
27.71000, 36.
27.74000, 41.
27.77000, 48.
27.80000, 50.
27.83000, 51.
27.86000, 32.
27.89000, 51.
27.92000, 46.
27.95000, 46.
27.98000, 46.
28.01000, 40.
28.04000, 54.
28.07000, 49.
28.10000, 40.
28.13000, 49.
28.16000, 49.
28.19000, 46.
28.22000, 57.
28.25000, 39.
28.28000, 55.
28.31000, 43.
28.34000, 57.
28.37000, 44.
28.40000, 44.
28.43000, 44.
28.46000, 59.
28.49000, 42.
28.52000, 53.
28.55000, 42.
28.58000, 39.
28.61000, 41.
28.64000, 36.
28.67000, 41.
28.70000, 30.
28.73000, 43.
28.76000, 32.
28.79000, 48.
28.82000, 41.
28.85000, 45.
28.88000, 35.
28.91000, 32.
28.94000, 43.
28.97000, 38.
29.00000, 39.
29.03000, 38.
29.06000, 44.
29.09000, 34.
29.12000, 43.
29.15000, 48.
29.18000, 54.
29.21000, 34.
29.24000, 48.
29.27000, 37.
29.30000, 34.
29.33000, 38.
29.36000, 42.
29.39000, 42.
29.42000, 41.
29.45000, 36.
29.48000, 29.
29.51000, 37.
29.54000, 41.
29.57000, 34.
29.60000, 27.
29.63000, 35.
29.66000, 36.
29.69000, 49.
29.72000, 43.
29.75000, 36.
29.78000, 47.
29.81000, 30.
29.84000, 44.
29.87000, 37.
29.90000, 51.
29.93000, 21.
29.96000, 43.
29.99000, 40.
30.02000, 36.
30.05000, 39.
30.08000, 38.
30.11000, 33.
30.14000, 25.
30.17000, 35.
30.20000, 33.
30.23000, 39.
30.26000, 26.
30.29000, 29.
30.32000, 27.
30.35000, 23.
30.38000, 33.
30.41000, 32.
30.44000, 33.
30.47000, 33.
30.50000, 33.
30.53000, 26.
30.56000, 34.
30.59000, 36.
30.62000, 22.
30.65000, 29.
30.68000, 24.
30.71000, 16.
30.74000, 35.
30.77000, 37.
30.80000, 30.
30.83000, 40.
30.86000, 40.
30.89000, 24.
30.92000, 37.
30.95000, 39.
30.98000, 28.
31.01000, 35.
31.04000, 34.
31.07000, 29.
31.10000, 45.
31.13000, 31.
31.16000, 24.
31.19000, 25.
31.22000, 29.
31.25000, 42.
31.28000, 26.
31.31000, 21.
31.34000, 34.
31.37000, 32.
31.40000, 28.
31.43000, 37.
31.46000, 45.
31.49000, 27.
31.52000, 31.
31.55000, 24.
31.58000, 31.
31.61000, 37.
31.64000, 29.
31.67000, 35.
31.70000, 34.
31.73000, 31.
31.76000, 22.
31.79000, 35.
31.82000, 42.
31.85000, 32.
31.88000, 32.
31.91000, 28.
31.94000, 38.
31.97000, 33.
32.00000, 41.
32.03000, 33.
32.06000, 43.
32.09000, 35.
32.12000, 35.
32.15000, 31.
32.18000, 41.
32.21000, 42.
32.24000, 43.
32.27000, 37.
32.30000, 37.
32.33000, 30.
32.36000, 23.
32.39000, 32.
32.42000, 28.
32.45000, 35.
32.48000, 30.
32.51000, 34.
32.54000, 16.
32.57000, 26.
32.60000, 22.
32.63000, 25.
32.66000, 21.
32.69000, 15.
32.72000, 21.
32.75000, 20.
32.78000, 25.
32.81000, 31.
32.84000, 28.
32.87000, 36.
32.90000, 20.
32.93000, 24.
32.96000, 19.
32.99000, 23.
33.02000, 25.
33.05000, 18.
33.08000, 21.
33.11000, 21.
33.14000, 31.
33.17000, 31.
33.20000, 22.
33.23000, 31.
33.26000, 21.
33.29000, 18.
33.32000, 16.
33.35000, 16.
33.38000, 26.
33.41000, 8.
33.44000, 23.
33.47000, 25.
33.50000, 17.
33.53000, 15.
33.56000, 17.
33.59000, 18.
33.62000, 19.
33.65000, 23.
33.68000, 20.
33.71000, 25.
33.74000, 26.
33.77000, 21.
33.80000, 20.
33.83000, 21.
33.86000, 28.
33.89000, 22.
33.92000, 23.
33.95000, 24.
33.98000, 21.
34.01000, 21.
34.04000, 15.
34.07000, 14.
34.10000, 17.
34.13000, 22.
34.16000, 16.
34.19000, 16.
34.22000, 28.
34.25000, 25.
34.28000, 20.
34.31000, 15.
34.34000, 17.
34.37000, 14.
34.40000, 21.
34.43000, 17.
34.46000, 21.
34.49000, 15.
34.52000, 13.
34.55000, 17.
34.58000, 20.
34.61000, 16.
34.64000, 16.
34.67000, 21.
34.70000, 14.
34.73000, 19.
34.76000, 16.
34.79000, 18.
34.82000, 16.
34.85000, 16.
34.88000, 19.
34.91000, 23.
34.94000, 16.
34.97000, 20.
35.00000, 11.
35.03000, 13.
35.06000, 17.
35.09000, 17.
35.12000, 21.
35.15000, 12.
35.18000, 19.
35.21000, 10.
35.24000, 21.
35.27000, 14.
35.30000, 17.
35.33000, 18.
35.36000, 12.
35.39000, 15.
35.42000, 14.
35.45000, 16.
35.48000, 17.
35.51000, 13.
35.54000, 13.
35.57000, 16.
35.60000, 20.
35.63000, 13.
35.66000, 14.
35.69000, 11.
35.72000, 11.
35.75000, 15.
35.78000, 19.
35.81000, 12.
35.84000, 20.
35.87000, 12.
35.90000, 6.
35.93000, 12.
35.96000, 18.
35.99000, 15.
36.02000, 8.
36.05000, 17.
36.08000, 16.
36.11000, 16.
36.14000, 10.
36.17000, 12.
36.20000, 12.
36.23000, 10.
36.26000, 7.
36.29000, 16.
36.32000, 13.
36.35000, 15.
36.38000, 16.
36.41000, 11.
36.44000, 12.
36.47000, 11.
36.50000, 11.
36.53000, 9.
36.56000, 9.
36.59000, 13.
36.62000, 12.
36.65000, 17.
36.68000, 12.
36.71000, 12.
36.74000, 13.
36.77000, 11.
36.80000, 9.
36.83000, 8.
36.86000, 18.
36.89000, 13.
36.92000, 10.
36.95000, 10.
36.98000, 13.
37.01000, 14.
37.04000, 16.
37.07000, 13.
37.10000, 9.
37.13000, 14.
37.16000, 14.
37.19000, 9.
37.22000, 11.
37.25000, 8.
37.28000, 13.
37.31000, 10.
37.34000, 10.
37.37000, 12.
37.40000, 10.
37.43000, 13.
37.46000, 11.
37.49000, 7.
37.52000, 11.
37.55000, 7.
37.58000, 15.
37.61000, 9.
37.64000, 19.
37.67000, 14.
37.70000, 9.
37.73000, 12.
37.76000, 13.
37.79000, 8.
37.82000, 9.
37.85000, 10.
37.88000, 8.
37.91000, 9.
37.94000, 14.
37.97000, 7.
38.00000, 11.
38.03000, 8.
38.06000, 13.
38.09000, 9.
38.12000, 7.
38.15000, 11.
38.18000, 5.
38.21000, 11.
38.24000, 9.
38.27000, 7.
38.30000, 13.
38.33000, 13.
38.36000, 11.
38.39000, 6.
38.42000, 6.
38.45000, 6.
38.48000, 11.
38.51000, 10.
38.54000, 7.
38.57000, 12.
38.60000, 4.
38.63000, 9.
38.66000, 13.
38.69000, 7.
38.72000, 6.
38.75000, 9.
38.78000, 12.
38.81000, 12.
38.84000, 9.
38.87000, 9.
38.90000, 10.
38.93000, 5.
38.96000, 11.
38.99000, 7.
39.02000, 5.
39.05000, 8.
39.08000, 6.
39.11000, 5.
39.14000, 7.
39.17000, 6.
39.20000, 7.
39.23000, 5.
39.26000, 3.
39.29000, 3.
39.32000, 6.
39.35000, 5.
39.38000, 4.
39.41000, 4.
39.44000, 9.
39.47000, 12.
39.50000, 6.
39.53000, 3.
39.56000, 6.
39.59000, 6.
39.62000, 12.
39.65000, 4.
39.68000, 7.
39.71000, 4.
39.74000, 6.
39.77000, 4.
39.80000, 5.
39.83000, 7.
39.86000, 7.
39.89000, 7.
39.92000, 3.
39.95000, 5.
39.98000, 4.
40.01000, 5.
40.04000, 4.
40.07000, 7.
40.10000, 7.
40.13000, 6.
40.16000, 2.
40.19000, 1.
40.22000, 3.
40.25000, 3.
40.28000, 4.
40.31000, 5.
40.34000, 6.
40.37000, 5.
40.40000, 5.
40.43000, 1.
40.46000, 7.
40.49000, 3.
40.52000, 4.
40.55000, 0.
#ENDOFDATA   :