File: sample_data/data/Spectrum value from standard/PACS 2/Spectrum 16, PACS 2.txt
#FORMAT      : EMSA/MAS Spectral Data File
#VERSION     : 1.0
#TITLE       : Spectrum 16
#DATE        : 21-AUG-2025
#TIME        : 15:20
#OWNER       : XGT7200
#NPOINTS     : 4096.
#NCOLUMNS    : 1.
#XUNITS      : keV
#YUNITS      : counts
#DATATYPE    : XY
#XPERCHAN    : 0.0100000
#OFFSET      : -0.400000
#SIGNALTYPE  : EDS
#CHOFFSET    : 40.0000
#LIVETIME    : 30
#REALTIME    : 39.6024
#BEAMKV      : 50.0000
#PROBECUR    : 697000.
#MAGCAM      : 100.000
#XTILTSTGE   : 0.0
#AZIMANGLE   : 0.0
#ELEVANGLE   : 45.0
#XPOSITION mm: 0.0000
#YPOSITION mm: 0.0000
#ZPOSITION mm: 0.0000
##OXINSTPT   : 4
##OXINSTSTROB: 72.08
#SPECTRUM    : Spectral Data Starts Here
-0.40000, 0.
-0.37000, 0.
-0.34000, 0.
-0.31000, 0.
-0.28000, 0.
-0.25000, 0.
-0.22000, 0.
-0.19000, 0.
-0.16000, 0.
-0.13000, 0.
-0.10000, 0.
-0.07000, 0.
-0.04000, 0.
-0.01000, 0.
0.02000, 0.
0.05000, 0.
0.08000, 0.
0.11000, 0.
0.14000, 0.
0.17000, 0.
0.20000, 0.
0.23000, 0.
0.26000, 0.
0.29000, 0.
0.32000, 0.
0.35000, 3.
0.38000, 12.
0.41000, 32.
0.44000, 43.
0.47000, 40.
0.50000, 47.
0.53000, 51.
0.56000, 43.
0.59000, 53.
0.62000, 40.
0.65000, 45.
0.68000, 47.
0.71000, 43.
0.74000, 34.
0.77000, 40.
0.80000, 41.
0.83000, 65.
0.86000, 64.
0.89000, 63.
0.92000, 51.
0.95000, 48.
0.98000, 55.
1.01000, 59.
1.04000, 61.
1.07000, 67.
1.10000, 53.
1.13000, 45.
1.16000, 35.
1.19000, 43.
1.22000, 63.
1.25000, 90.
1.28000, 76.
1.31000, 56.
1.34000, 44.
1.37000, 51.
1.40000, 85.
1.43000, 241.
1.46000, 537.
1.49000, 706.
1.52000, 587.
1.55000, 329.
1.58000, 142.
1.61000, 128.
1.64000, 325.
1.67000, 1229.
1.70000, 3461.
1.73000, 5624.
1.76000, 5907.
1.79000, 3589.
1.82000, 1567.
1.85000, 551.
1.88000, 194.
1.91000, 91.
1.94000, 57.
1.97000, 73.
2.00000, 71.
2.03000, 59.
2.06000, 62.
2.09000, 30.
2.12000, 36.
2.15000, 30.
2.18000, 58.
2.21000, 100.
2.24000, 289.
2.27000, 566.
2.30000, 750.
2.33000, 743.
2.36000, 439.
2.39000, 210.
2.42000, 93.
2.45000, 98.
2.48000, 125.
2.51000, 164.
2.54000, 359.
2.57000, 819.
2.60000, 1446.
2.63000, 1642.
2.66000, 1579.
2.69000, 1130.
2.72000, 759.
2.75000, 463.
2.78000, 404.
2.81000, 394.
2.84000, 393.
2.87000, 310.
2.90000, 179.
2.93000, 120.
2.96000, 79.
2.99000, 53.
3.02000, 54.
3.05000, 43.
3.08000, 41.
3.11000, 33.
3.14000, 30.
3.17000, 37.
3.20000, 58.
3.23000, 119.
3.26000, 286.
3.29000, 459.
3.32000, 533.
3.35000, 457.
3.38000, 271.
3.41000, 129.
3.44000, 61.
3.47000, 35.
3.50000, 50.
3.53000, 73.
3.56000, 124.
3.59000, 261.
3.62000, 514.
3.65000, 854.
3.68000, 1175.
3.71000, 1166.
3.74000, 888.
3.77000, 456.
3.80000, 153.
3.83000, 66.
3.86000, 36.
3.89000, 31.
3.92000, 64.
3.95000, 99.
3.98000, 175.
4.01000, 210.
4.04000, 184.
4.07000, 134.
4.10000, 83.
4.13000, 42.
4.16000, 34.
4.19000, 26.
4.22000, 28.
4.25000, 21.
4.28000, 39.
4.31000, 38.
4.34000, 33.
4.37000, 48.
4.40000, 112.
4.43000, 232.
4.46000, 412.
4.49000, 506.
4.52000, 536.
4.55000, 411.
4.58000, 268.
4.61000, 191.
4.64000, 115.
4.67000, 87.
4.70000, 85.
4.73000, 73.
4.76000, 71.
4.79000, 60.
4.82000, 84.
4.85000, 108.
4.88000, 116.
4.91000, 127.
4.94000, 145.
4.97000, 133.
5.00000, 86.
5.03000, 75.
5.06000, 65.
5.09000, 61.
5.12000, 49.
5.15000, 60.
5.18000, 58.
5.21000, 64.
5.24000, 64.
5.27000, 65.
5.30000, 54.
5.33000, 73.
5.36000, 62.
5.39000, 101.
5.42000, 73.
5.45000, 85.
5.48000, 68.
5.51000, 83.
5.54000, 75.
5.57000, 51.
5.60000, 46.
5.63000, 58.
5.66000, 60.
5.69000, 64.
5.72000, 52.
5.75000, 56.
5.78000, 66.
5.81000, 85.
5.84000, 118.
5.87000, 139.
5.90000, 165.
5.93000, 143.
5.96000, 120.
5.99000, 96.
6.02000, 65.
6.05000, 68.
6.08000, 82.
6.11000, 105.
6.14000, 110.
6.17000, 128.
6.20000, 205.
6.23000, 428.
6.26000, 1162.
6.29000, 2916.
6.32000, 6041.
6.35000, 10301.
6.38000, 13149.
6.41000, 13699.
6.44000, 11309.
6.47000, 7145.
6.50000, 3657.
6.53000, 1527.
6.56000, 571.
6.59000, 210.
6.62000, 121.
6.65000, 96.
6.68000, 112.
6.71000, 89.
6.74000, 89.
6.77000, 90.
6.80000, 126.
6.83000, 121.
6.86000, 158.
6.89000, 221.
6.92000, 407.
6.95000, 709.
6.98000, 1284.
7.01000, 1876.
7.04000, 2266.
7.07000, 2194.
7.10000, 1735.
7.13000, 1179.
7.16000, 584.
7.19000, 303.
7.22000, 168.
7.25000, 82.
7.28000, 89.
7.31000, 69.
7.34000, 65.
7.37000, 67.
7.40000, 74.
7.43000, 77.
7.46000, 81.
7.49000, 91.
7.52000, 59.
7.55000, 100.
7.58000, 75.
7.61000, 82.
7.64000, 56.
7.67000, 69.
7.70000, 64.
7.73000, 95.
7.76000, 88.
7.79000, 80.
7.82000, 81.
7.85000, 88.
7.88000, 118.
7.91000, 124.
7.94000, 157.
7.97000, 197.
8.00000, 228.
8.03000, 251.
8.06000, 267.
8.09000, 239.
8.12000, 223.
8.15000, 157.
8.18000, 146.
8.21000, 119.
8.24000, 103.
8.27000, 114.
8.30000, 104.
8.33000, 107.
8.36000, 96.
8.39000, 110.
8.42000, 93.
8.45000, 106.
8.48000, 132.
8.51000, 166.
8.54000, 196.
8.57000, 253.
8.60000, 307.
8.63000, 344.
8.66000, 293.
8.69000, 263.
8.72000, 210.
8.75000, 168.
8.78000, 148.
8.81000, 120.
8.84000, 151.
8.87000, 124.
8.90000, 162.
8.93000, 151.
8.96000, 150.
8.99000, 138.
9.02000, 125.
9.05000, 132.
9.08000, 139.
9.11000, 118.
9.14000, 148.
9.17000, 133.
9.20000, 156.
9.23000, 131.
9.26000, 146.
9.29000, 128.
9.32000, 101.
9.35000, 129.
9.38000, 107.
9.41000, 140.
9.44000, 146.
9.47000, 151.
9.50000, 140.
9.53000, 153.
9.56000, 151.
9.59000, 157.
9.62000, 160.
9.65000, 147.
9.68000, 131.
9.71000, 120.
9.74000, 131.
9.77000, 128.
9.80000, 135.
9.83000, 119.
9.86000, 130.
9.89000, 108.
9.92000, 119.
9.95000, 111.
9.98000, 105.
10.01000, 126.
10.04000, 116.
10.07000, 120.
10.10000, 129.
10.13000, 112.
10.16000, 137.
10.19000, 134.
10.22000, 145.
10.25000, 121.
10.28000, 153.
10.31000, 133.
10.34000, 128.
10.37000, 138.
10.40000, 129.
10.43000, 146.
10.46000, 174.
10.49000, 199.
10.52000, 211.
10.55000, 228.
10.58000, 200.
10.61000, 192.
10.64000, 165.
10.67000, 148.
10.70000, 156.
10.73000, 124.
10.76000, 139.
10.79000, 123.
10.82000, 132.
10.85000, 143.
10.88000, 141.
10.91000, 148.
10.94000, 133.
10.97000, 128.
11.00000, 137.
11.03000, 125.
11.06000, 161.
11.09000, 134.
11.12000, 143.
11.15000, 151.
11.18000, 148.
11.21000, 139.
11.24000, 140.
11.27000, 149.
11.30000, 118.
11.33000, 136.
11.36000, 151.
11.39000, 132.
11.42000, 151.
11.45000, 142.
11.48000, 144.
11.51000, 140.
11.54000, 135.
11.57000, 134.
11.60000, 151.
11.63000, 131.
11.66000, 146.
11.69000, 171.
11.72000, 172.
11.75000, 183.
11.78000, 215.
11.81000, 292.
11.84000, 275.
11.87000, 327.
11.90000, 346.
11.93000, 301.
11.96000, 297.
11.99000, 224.
12.02000, 194.
12.05000, 158.
12.08000, 145.
12.11000, 156.
12.14000, 153.
12.17000, 160.
12.20000, 142.
12.23000, 148.
12.26000, 156.
12.29000, 154.
12.32000, 157.
12.35000, 156.
12.38000, 169.
12.41000, 144.
12.44000, 151.
12.47000, 169.
12.50000, 180.
12.53000, 197.
12.56000, 197.
12.59000, 216.
12.62000, 190.
12.65000, 228.
12.68000, 192.
12.71000, 205.
12.74000, 192.
12.77000, 182.
12.80000, 195.
12.83000, 207.
12.86000, 170.
12.89000, 185.
12.92000, 181.
12.95000, 186.
12.98000, 177.
13.01000, 142.
13.04000, 154.
13.07000, 165.
13.10000, 163.
13.13000, 145.
13.16000, 167.
13.19000, 195.
13.22000, 186.
13.25000, 217.
13.28000, 248.
13.31000, 206.
13.34000, 220.
13.37000, 190.
13.40000, 216.
13.43000, 190.
13.46000, 219.
13.49000, 169.
13.52000, 170.
13.55000, 171.
13.58000, 158.
13.61000, 171.
13.64000, 157.
13.67000, 166.
13.70000, 156.
13.73000, 145.
13.76000, 169.
13.79000, 158.
13.82000, 169.
13.85000, 156.
13.88000, 185.
13.91000, 162.
13.94000, 186.
13.97000, 203.
14.00000, 226.
14.03000, 319.
14.06000, 355.
14.09000, 381.
14.12000, 454.
14.15000, 395.
14.18000, 386.
14.21000, 319.
14.24000, 262.
14.27000, 229.
14.30000, 159.
14.33000, 165.
14.36000, 161.
14.39000, 154.
14.42000, 139.
14.45000, 157.
14.48000, 146.
14.51000, 144.
14.54000, 162.
14.57000, 150.
14.60000, 160.
14.63000, 152.
14.66000, 153.
14.69000, 167.
14.72000, 152.
14.75000, 136.
14.78000, 164.
14.81000, 151.
14.84000, 156.
14.87000, 166.
14.90000, 176.
14.93000, 166.
14.96000, 169.
14.99000, 159.
15.02000, 155.
15.05000, 159.
15.08000, 156.
15.11000, 132.
15.14000, 163.
15.17000, 152.
15.20000, 157.
15.23000, 155.
15.26000, 155.
15.29000, 161.
15.32000, 123.
15.35000, 146.
15.38000, 138.
15.41000, 159.
15.44000, 165.
15.47000, 164.
15.50000, 143.
15.53000, 159.
15.56000, 171.
15.59000, 211.
15.62000, 246.
15.65000, 282.
15.68000, 267.
15.71000, 292.
15.74000, 306.
15.77000, 317.
15.80000, 286.
15.83000, 263.
15.86000, 231.
15.89000, 185.
15.92000, 195.
15.95000, 173.
15.98000, 167.
16.01000, 132.
16.04000, 139.
16.07000, 178.
16.10000, 148.
16.13000, 146.
16.16000, 164.
16.19000, 177.
16.22000, 150.
16.25000, 146.
16.28000, 144.
16.31000, 131.
16.34000, 149.
16.37000, 143.
16.40000, 142.
16.43000, 140.
16.46000, 150.
16.49000, 160.
16.52000, 165.
16.55000, 149.
16.58000, 145.
16.61000, 144.
16.64000, 156.
16.67000, 129.
16.70000, 154.
16.73000, 165.
16.76000, 150.
16.79000, 158.
16.82000, 133.
16.85000, 145.
16.88000, 162.
16.91000, 151.
16.94000, 121.
16.97000, 143.
17.00000, 145.
17.03000, 136.
17.06000, 154.
17.09000, 176.
17.12000, 161.
17.15000, 164.
17.18000, 129.
17.21000, 171.
17.24000, 169.
17.27000, 169.
17.30000, 165.
17.33000, 193.
17.36000, 154.
17.39000, 172.
17.42000, 174.
17.45000, 172.
17.48000, 156.
17.51000, 196.
17.54000, 187.
17.57000, 190.
17.60000, 214.
17.63000, 195.
17.66000, 198.
17.69000, 176.
17.72000, 196.
17.75000, 178.
17.78000, 213.
17.81000, 180.
17.84000, 188.
17.87000, 232.
17.90000, 201.
17.93000, 206.
17.96000, 213.
17.99000, 222.
18.02000, 251.
18.05000, 226.
18.08000, 260.
18.11000, 236.
18.14000, 264.
18.17000, 294.
18.20000, 275.
18.23000, 295.
18.26000, 327.
18.29000, 337.
18.32000, 382.
18.35000, 392.
18.38000, 435.
18.41000, 449.
18.44000, 479.
18.47000, 537.
18.50000, 568.
18.53000, 617.
18.56000, 676.
18.59000, 718.
18.62000, 777.
18.65000, 785.
18.68000, 889.
18.71000, 887.
18.74000, 868.
18.77000, 862.
18.80000, 902.
18.83000, 873.
18.86000, 877.
18.89000, 877.
18.92000, 826.
18.95000, 782.
18.98000, 786.
19.01000, 692.
19.04000, 643.
19.07000, 620.
19.10000, 564.
19.13000, 490.
19.16000, 458.
19.19000, 455.
19.22000, 423.
19.25000, 403.
19.28000, 326.
19.31000, 311.
19.34000, 297.
19.37000, 262.
19.40000, 275.
19.43000, 261.
19.46000, 228.
19.49000, 220.
19.52000, 245.
19.55000, 224.
19.58000, 201.
19.61000, 203.
19.64000, 201.
19.67000, 175.
19.70000, 181.
19.73000, 186.
19.76000, 182.
19.79000, 161.
19.82000, 188.
19.85000, 179.
19.88000, 192.
19.91000, 273.
19.94000, 279.
19.97000, 319.
20.00000, 360.
20.03000, 423.
20.06000, 487.
20.09000, 559.
20.12000, 538.
20.15000, 562.
20.18000, 541.
20.21000, 476.
20.24000, 429.
20.27000, 335.
20.30000, 338.
20.33000, 261.
20.36000, 215.
20.39000, 169.
20.42000, 172.
20.45000, 161.
20.48000, 160.
20.51000, 160.
20.54000, 176.
20.57000, 164.
20.60000, 192.
20.63000, 180.
20.66000, 159.
20.69000, 189.
20.72000, 213.
20.75000, 198.
20.78000, 203.
20.81000, 208.
20.84000, 254.
20.87000, 251.
20.90000, 246.
20.93000, 257.
20.96000, 264.
20.99000, 256.
21.02000, 289.
21.05000, 233.
21.08000, 239.
21.11000, 241.
21.14000, 219.
21.17000, 202.
21.20000, 191.
21.23000, 182.
21.26000, 233.
21.29000, 207.
21.32000, 183.
21.35000, 171.
21.38000, 173.
21.41000, 147.
21.44000, 141.
21.47000, 151.
21.50000, 142.
21.53000, 138.
21.56000, 137.
21.59000, 128.
21.62000, 141.
21.65000, 127.
21.68000, 125.
21.71000, 112.
21.74000, 118.
21.77000, 122.
21.80000, 114.
21.83000, 100.
21.86000, 105.
21.89000, 93.
21.92000, 94.
21.95000, 102.
21.98000, 83.
22.01000, 95.
22.04000, 103.
22.07000, 83.
22.10000, 105.
22.13000, 95.
22.16000, 95.
22.19000, 110.
22.22000, 90.
22.25000, 94.
22.28000, 102.
22.31000, 97.
22.34000, 74.
22.37000, 89.
22.40000, 97.
22.43000, 88.
22.46000, 103.
22.49000, 99.
22.52000, 114.
22.55000, 114.
22.58000, 122.
22.61000, 153.
22.64000, 139.
22.67000, 122.
22.70000, 151.
22.73000, 139.
22.76000, 115.
22.79000, 102.
22.82000, 108.
22.85000, 91.
22.88000, 89.
22.91000, 81.
22.94000, 86.
22.97000, 84.
23.00000, 81.
23.03000, 76.
23.06000, 73.
23.09000, 81.
23.12000, 71.
23.15000, 93.
23.18000, 85.
23.21000, 71.
23.24000, 88.
23.27000, 68.
23.30000, 80.
23.33000, 77.
23.36000, 72.
23.39000, 75.
23.42000, 78.
23.45000, 80.
23.48000, 73.
23.51000, 49.
23.54000, 77.
23.57000, 64.
23.60000, 64.
23.63000, 64.
23.66000, 77.
23.69000, 67.
23.72000, 67.
23.75000, 61.
23.78000, 71.
23.81000, 63.
23.84000, 63.
23.87000, 63.
23.90000, 59.
23.93000, 53.
23.96000, 74.
23.99000, 71.
24.02000, 71.
24.05000, 55.
24.08000, 67.
24.11000, 69.
24.14000, 65.
24.17000, 61.
24.20000, 81.
24.23000, 57.
24.26000, 55.
24.29000, 73.
24.32000, 66.
24.35000, 72.
24.38000, 65.
24.41000, 65.
24.44000, 69.
24.47000, 52.
24.50000, 67.
24.53000, 74.
24.56000, 73.
24.59000, 63.
24.62000, 59.
24.65000, 67.
24.68000, 52.
24.71000, 51.
24.74000, 67.
24.77000, 77.
24.80000, 63.
24.83000, 60.
24.86000, 69.
24.89000, 69.
24.92000, 70.
24.95000, 73.
24.98000, 77.
25.01000, 66.
25.04000, 69.
25.07000, 72.
25.10000, 57.
25.13000, 84.
25.16000, 58.
25.19000, 70.
25.22000, 80.
25.25000, 79.
25.28000, 77.
25.31000, 65.
25.34000, 70.
25.37000, 67.
25.40000, 74.
25.43000, 56.
25.46000, 63.
25.49000, 65.
25.52000, 76.
25.55000, 53.
25.58000, 56.
25.61000, 62.
25.64000, 51.
25.67000, 56.
25.70000, 72.
25.73000, 59.
25.76000, 67.
25.79000, 69.
25.82000, 60.
25.85000, 53.
25.88000, 51.
25.91000, 55.
25.94000, 60.
25.97000, 55.
26.00000, 55.
26.03000, 47.
26.06000, 65.
26.09000, 51.
26.12000, 64.
26.15000, 65.
26.18000, 51.
26.21000, 60.
26.24000, 60.
26.27000, 54.
26.30000, 56.
26.33000, 54.
26.36000, 53.
26.39000, 56.
26.42000, 63.
26.45000, 42.
26.48000, 61.
26.51000, 45.
26.54000, 52.
26.57000, 51.
26.60000, 53.
26.63000, 51.
26.66000, 44.
26.69000, 50.
26.72000, 57.
26.75000, 51.
26.78000, 39.
26.81000, 46.
26.84000, 50.
26.87000, 45.
26.90000, 55.
26.93000, 52.
26.96000, 48.
26.99000, 60.
27.02000, 46.
27.05000, 43.
27.08000, 53.
27.11000, 50.
27.14000, 51.
27.17000, 57.
27.20000, 45.
27.23000, 46.
27.26000, 50.
27.29000, 44.
27.32000, 53.
27.35000, 62.
27.38000, 64.
27.41000, 56.
27.44000, 57.
27.47000, 46.
27.50000, 40.
27.53000, 48.
27.56000, 49.
27.59000, 58.
27.62000, 48.
27.65000, 50.
27.68000, 48.
27.71000, 48.
27.74000, 37.
27.77000, 42.
27.80000, 39.
27.83000, 37.
27.86000, 42.
27.89000, 55.
27.92000, 42.
27.95000, 60.
27.98000, 40.
28.01000, 42.
28.04000, 45.
28.07000, 46.
28.10000, 36.
28.13000, 35.
28.16000, 44.
28.19000, 57.
28.22000, 51.
28.25000, 49.
28.28000, 41.
28.31000, 52.
28.34000, 42.
28.37000, 44.
28.40000, 37.
28.43000, 52.
28.46000, 41.
28.49000, 50.
28.52000, 47.
28.55000, 38.
28.58000, 40.
28.61000, 48.
28.64000, 40.
28.67000, 39.
28.70000, 51.
28.73000, 37.
28.76000, 45.
28.79000, 49.
28.82000, 35.
28.85000, 38.
28.88000, 42.
28.91000, 34.
28.94000, 36.
28.97000, 49.
29.00000, 57.
29.03000, 46.
29.06000, 44.
29.09000, 30.
29.12000, 42.
29.15000, 45.
29.18000, 34.
29.21000, 43.
29.24000, 37.
29.27000, 32.
29.30000, 26.
29.33000, 42.
29.36000, 41.
29.39000, 30.
29.42000, 32.
29.45000, 34.
29.48000, 49.
29.51000, 36.
29.54000, 32.
29.57000, 30.
29.60000, 37.
29.63000, 47.
29.66000, 32.
29.69000, 39.
29.72000, 28.
29.75000, 37.
29.78000, 36.
29.81000, 34.
29.84000, 38.
29.87000, 39.
29.90000, 21.
29.93000, 41.
29.96000, 34.
29.99000, 39.
30.02000, 42.
30.05000, 34.
30.08000, 39.
30.11000, 34.
30.14000, 26.
30.17000, 32.
30.20000, 33.
30.23000, 30.
30.26000, 37.
30.29000, 31.
30.32000, 39.
30.35000, 25.
30.38000, 43.
30.41000, 26.
30.44000, 38.
30.47000, 29.
30.50000, 35.
30.53000, 37.
30.56000, 29.
30.59000, 31.
30.62000, 31.
30.65000, 38.
30.68000, 28.
30.71000, 30.
30.74000, 30.
30.77000, 29.
30.80000, 29.
30.83000, 22.
30.86000, 34.
30.89000, 34.
30.92000, 29.
30.95000, 33.
30.98000, 32.
31.01000, 36.
31.04000, 33.
31.07000, 34.
31.10000, 31.
31.13000, 26.
31.16000, 21.
31.19000, 36.
31.22000, 30.
31.25000, 41.
31.28000, 22.
31.31000, 26.
31.34000, 30.
31.37000, 27.
31.40000, 33.
31.43000, 21.
31.46000, 29.
31.49000, 18.
31.52000, 23.
31.55000, 44.
31.58000, 32.
31.61000, 34.
31.64000, 31.
31.67000, 25.
31.70000, 41.
31.73000, 32.
31.76000, 35.
31.79000, 23.
31.82000, 33.
31.85000, 46.
31.88000, 35.
31.91000, 47.
31.94000, 31.
31.97000, 41.
32.00000, 38.
32.03000, 34.
32.06000, 40.
32.09000, 47.
32.12000, 41.
32.15000, 40.
32.18000, 47.
32.21000, 42.
32.24000, 21.
32.27000, 36.
32.30000, 28.
32.33000, 18.
32.36000, 39.
32.39000, 28.
32.42000, 32.
32.45000, 26.
32.48000, 21.
32.51000, 26.
32.54000, 24.
32.57000, 26.
32.60000, 27.
32.63000, 36.
32.66000, 37.
32.69000, 15.
32.72000, 32.
32.75000, 22.
32.78000, 28.
32.81000, 25.
32.84000, 22.
32.87000, 21.
32.90000, 29.
32.93000, 20.
32.96000, 28.
32.99000, 17.
33.02000, 20.
33.05000, 19.
33.08000, 22.
33.11000, 25.
33.14000, 24.
33.17000, 31.
33.20000, 26.
33.23000, 16.
33.26000, 17.
33.29000, 24.
33.32000, 18.
33.35000, 17.
33.38000, 28.
33.41000, 20.
33.44000, 18.
33.47000, 21.
33.50000, 22.
33.53000, 27.
33.56000, 26.
33.59000, 26.
33.62000, 28.
33.65000, 24.
33.68000, 23.
33.71000, 20.
33.74000, 24.
33.77000, 17.
33.80000, 19.
33.83000, 16.
33.86000, 22.
33.89000, 19.
33.92000, 25.
33.95000, 18.
33.98000, 16.
34.01000, 14.
34.04000, 21.
34.07000, 22.
34.10000, 24.
34.13000, 15.
34.16000, 17.
34.19000, 19.
34.22000, 26.
34.25000, 18.
34.28000, 18.
34.31000, 20.
34.34000, 26.
34.37000, 22.
34.40000, 24.
34.43000, 19.
34.46000, 18.
34.49000, 19.
34.52000, 28.
34.55000, 17.
34.58000, 19.
34.61000, 20.
34.64000, 25.
34.67000, 21.
34.70000, 24.
34.73000, 18.
34.76000, 22.
34.79000, 16.
34.82000, 20.
34.85000, 18.
34.88000, 15.
34.91000, 13.
34.94000, 14.
34.97000, 20.
35.00000, 18.
35.03000, 15.
35.06000, 16.
35.09000, 20.
35.12000, 10.
35.15000, 25.
35.18000, 13.
35.21000, 16.
35.24000, 18.
35.27000, 20.
35.30000, 14.
35.33000, 12.
35.36000, 16.
35.39000, 27.
35.42000, 8.
35.45000, 12.
35.48000, 16.
35.51000, 20.
35.54000, 22.
35.57000, 18.
35.60000, 16.
35.63000, 16.
35.66000, 14.
35.69000, 9.
35.72000, 12.
35.75000, 17.
35.78000, 15.
35.81000, 20.
35.84000, 15.
35.87000, 14.
35.90000, 13.
35.93000, 11.
35.96000, 22.
35.99000, 15.
36.02000, 13.
36.05000, 12.
36.08000, 16.
36.11000, 19.
36.14000, 20.
36.17000, 12.
36.20000, 11.
36.23000, 14.
36.26000, 16.
36.29000, 20.
36.32000, 11.
36.35000, 12.
36.38000, 8.
36.41000, 14.
36.44000, 10.
36.47000, 16.
36.50000, 13.
36.53000, 13.
36.56000, 8.
36.59000, 13.
36.62000, 14.
36.65000, 7.
36.68000, 14.
36.71000, 9.
36.74000, 10.
36.77000, 7.
36.80000, 11.
36.83000, 12.
36.86000, 8.
36.89000, 14.
36.92000, 13.
36.95000, 14.
36.98000, 11.
37.01000, 15.
37.04000, 8.
37.07000, 14.
37.10000, 12.
37.13000, 18.
37.16000, 14.
37.19000, 15.
37.22000, 16.
37.25000, 9.
37.28000, 17.
37.31000, 8.
37.34000, 12.
37.37000, 13.
37.40000, 15.
37.43000, 7.
37.46000, 17.
37.49000, 7.
37.52000, 19.
37.55000, 14.
37.58000, 14.
37.61000, 7.
37.64000, 11.
37.67000, 17.
37.70000, 6.
37.73000, 10.
37.76000, 11.
37.79000, 5.
37.82000, 15.
37.85000, 11.
37.88000, 14.
37.91000, 7.
37.94000, 14.
37.97000, 4.
38.00000, 12.
38.03000, 10.
38.06000, 10.
38.09000, 10.
38.12000, 10.
38.15000, 13.
38.18000, 12.
38.21000, 10.
38.24000, 10.
38.27000, 10.
38.30000, 11.
38.33000, 8.
38.36000, 7.
38.39000, 6.
38.42000, 8.
38.45000, 12.
38.48000, 8.
38.51000, 11.
38.54000, 8.
38.57000, 6.
38.60000, 7.
38.63000, 5.
38.66000, 15.
38.69000, 5.
38.72000, 8.
38.75000, 6.
38.78000, 9.
38.81000, 9.
38.84000, 8.
38.87000, 7.
38.90000, 6.
38.93000, 9.
38.96000, 14.
38.99000, 10.
39.02000, 8.
39.05000, 5.
39.08000, 7.
39.11000, 6.
39.14000, 8.
39.17000, 4.
39.20000, 7.
39.23000, 4.
39.26000, 4.
39.29000, 3.
39.32000, 4.
39.35000, 8.
39.38000, 8.
39.41000, 7.
39.44000, 4.
39.47000, 8.
39.50000, 7.
39.53000, 12.
39.56000, 3.
39.59000, 3.
39.62000, 6.
39.65000, 9.
39.68000, 5.
39.71000, 4.
39.74000, 8.
39.77000, 3.
39.80000, 7.
39.83000, 2.
39.86000, 8.
39.89000, 4.
39.92000, 3.
39.95000, 5.
39.98000, 3.
40.01000, 3.
40.04000, 7.
40.07000, 8.
40.10000, 4.
40.13000, 2.
40.16000, 3.
40.19000, 3.
40.22000, 18.
40.25000, 4.
40.28000, 5.
40.31000, 5.
40.34000, 5.
40.37000, 5.
40.40000, 10.
40.43000, 7.
40.46000, 4.
40.49000, 3.
40.52000, 5.
40.55000, 0.
#ENDOFDATA   :